relative_time,LinearAccelerometerSensor,AccX,AccY,AccZ
0,19.77531491112049,,1.8602946996688843,-21.042638778686523
40,11.168826411519007,14.990097045898438,-1.0797849893569946,7.6997528076171875
79,,10.572794914245605,,
80,7.311800148885111,,-7.216124057769775,-4.584896087646484
119,8.042770968761763,2.942473888397217,3.507505416870117,
120,,,,-2.1978771686553955
158,2.021695716609362,8.841787338256836,0.4572925269603729,-3.043030261993408
199,3.3606235756568665,7.592013359069824,0.5841852426528931,0.035913024097681046
239,,5.149928092956543,,
240,4.477140006583422,,-0.9792284965515137,-1.0079588890075684
279,2.7899612132832163,7.299921035766602,-0.2849099934101105,-0.6200982332229614
317,,7.479485988616943,,
318,3.0040232383855243,,-0.3974374830722809,0.3663128614425659
358,4.795660306238042,9.727641105651855,-3.2632968425750732,3.2297780513763428
398,3.3940279009093133,12.346898078918457,-3.3662476539611816,-0.19871874153614044
438,5.824485317298498,14.76025390625,-0.8403648138046265,1.8363527059555054
478,4.272906561581799,10.848128318786621,-0.7134721279144287,3.31118106842041
519,9.48357859351907,7.970297336578369,-4.627991676330566,-9.653421401977539
558,10.028166965623862,18.753782272338867,-4.963180065155029,0.871489405632019
598,5.4402013623612415,11.106701850891113,-0.4165911078453064,-6.162675380706787
637,,5.284003257751465,,
638,4.409569754513685,,-2.205059766769409,-0.7445967197418213
686,3.476036186240615,6.861782073974609,0.29209262132644653,-2.274491548538208
715,,7.438784599304199,,
716,3.3698332055355324,,1.5155296325683594,-0.9959878921508789
755,3.9981933328389476,5.736507415771484,-0.3471592366695404,
756,,,,-0.8571242094039917
795,3.555652127014093,6.564900875091553,,
796,,,-0.06703764945268631,0.44532153010368347
835,2.8993004185268756,7.390900611877441,0.6823474764823914,0.37828385829925537
874,,9.945513725280762,,
875,1.7421510290596476,,0.19153612852096558,1.115697979927063
915,3.456971386752173,12.806585311889648,-0.09816227108240128,1.2761094570159912
955,5.186512680775185,14.159308433532715,-0.45010992884635925,2.4420857429504395
995,11.269553590749087,18.389863967895508,-1.2713210582733154,-7.6351094245910645
1034,4.267201114997389,11.528080940246582,,
1035,,,-2.698265314102173,2.097320795059204
1074,10.391331698829445,2.918531894683838,-4.086902141571045,-7.326257228851318
1113,,11.432312965393066,,
1114,3.5556904813544072,,2.827552318572998,-0.3280056416988373
1154,1.8759913684711471,10.972626686096191,-1.7501614093780518,
1155,,,,-0.7637503147125244
1194,4.566906199241015,5.5760955810546875,-1.6328455209732056,0.5770025849342346
9998,5.886035699837848,13.37161636352539,1.259350061416626,2.9520506858825684
10037,11.772760950203015,3.756502389907837,-8.090007781982422,-7.8098859786987305
10077,5.56708431999442,12.172121047973633,3.974374771118164,
10078,,,,-2.2577321529388428
10118,1.946256661229136,10.32858657836914,0.9361328482627869,-1.3000515699386597
10156,,5.22175407409668,,
10157,4.712852986924925,,-0.3998316824436188,0.14365209639072418
10196,6.7095640329099435,3.023876667022705,-0.43335050344467163,-1.7477672100067139
10236,2.660270072305626,8.31985092163086,0.35434186458587646,0.05267243832349777
10276,3.389495661531163,8.161833763122559,,
10277,,,-1.290474772453308,1.8195933103561401
10316,3.4481588011635997,6.210559368133545,-1.278503656387329,-0.9457096457481384
10356,3.166273460738006,11.741165161132812,0.8690952062606812,0.07422025501728058
10396,4.983804412996356,11.841721534729004,-3.646369218826294,3.359065055847168
10436,5.367746471188359,12.593501091003418,-5.398924827575684,1.9153614044189453
10475,,15.318102836608887,,
10476,9.66747552403483,,-4.2544965744018555,-7.996633529663086
10515,,14.628572463989258,,
10516,7.031798752457892,,-4.867412090301514,-4.977545261383057
10556,11.019937999294768,12.301408767700195,6.9455790519714355,-6.27280855178833
10596,2.4481048728070696,8.789113998413086,-1.7190368175506592,-3.0813376903533936
10636,,10.903194427490234,,
10637,3.842437271866962,,-5.580883979797363,-0.40462008118629456
10676,2.515889598128404,7.201758861541748,-1.3910311460494995,-0.43335050344467163
10715,,3.6583402156829834,,
10716,6.447634820730323,,0.9145850539207458,-1.2880805730819702
10755,,5.343858242034912,,
10756,4.509878547877045,,-1.0606313943862915,0.1364694982767105
10795,,6.299144744873047,,
10796,3.806395975455056,,-0.47644615173339844,0.4572925269603729
10835,,6.174646377563477,,
10836,4.4119926528385305,,0.4141969084739685,1.2066776752471924
10874,,11.341333389282227,,
10875,2.158444932190551,,-0.849941611289978,0.6009446382522583
10915,4.328616999125941,12.746729850769043,,
10916,,,0.9911994934082031,-2.8203697204589844
10954,,13.917494773864746,,
10955,7.710478887862658,,2.609679937362671,4.745307922363281
10994,9.63741067134955,16.297330856323242,,
10995,,,-2.5929205417633057,-7.524975776672363
11034,,13.752294540405273,,
11035,4.802504625134522,,1.6112977266311646,-2.626439332962036
11073,,5.748478412628174,,
11074,7.775709761332432,,-5.95677375793457,-4.5154643058776855
11113,,12.51209831237793,,
11114,4.16427709087366,,1.5825673341751099,-3.533841609954834
11153,1.9333388651845431,9.363722801208496,,
11154,,,0.8475474119186401,-2.736572504043579
11193,4.007041693436015,6.121973514556885,,
11194,,,0.8930372595787048,-0.2992752194404602
11233,5.663562747349416,4.077325344085693,-0.181959331035614,
11234,,,,-1.9704279899597168
11273,,7.886500358581543,,
11274,2.265953934567414,,-0.8571242094039917,-0.06224924325942993
11312,,7.972691535949707,,
11313,2.5973529839421827,,-1.2952631711959839,0.5626373887062073
11352,,6.694188117980957,,
11353,3.114535396211276,,-0.524330198764801,-0.5051765441894531
11392,,11.408370971679688,,
11393,3.2669975645151395,,-1.161187767982483,1.7741034030914307
11432,3.068957779758932,10.3549222946167,-3.5865142345428467,0.7924807667732239
32985,6.064719826059858,13.558363914489746,-4.8937482833862305,2.279279947280884
33006,,3.8977603912353516,,
33007,6.2825395010128755,,1.113303780555725,-0.3016694188117981
33046,3.5833186807258937,6.339846134185791,-1.8411411046981812,0.24660277366638184
33086,3.236120517773434,7.158663272857666,-0.28730419278144836,1.1516109704971313
33106,1.5559176078546868,8.564059257507324,-0.27054479718208313,-0.17477671802043915
33126,2.740788725221941,12.157755851745605,-0.06703764945268631,-0.16759411990642548
33146,4.488287624424324,13.4290771484375,1.1899182796478271,0.42856210470199585
33165,,12.035652160644531,,
33166,4.632482713151393,,1.9536685943603516,-2.674323320388794
33187,6.147317825602855,13.062764167785645,,
33188,,,3.60566782951355,-2.5905263423919678
33205,,14.391546249389648,,
33206,8.240233217661094,,3.2585084438323975,5.504269599914551
33225,7.0151747663157416,12.571952819824219,-2.183511972427368,6.232107162475586
33245,7.528436792234359,12.469002723693848,-6.600813865661621,
33246,,,,-3.28963303565979
33265,11.253972687238813,16.965312957763672,-2.3942017555236816,-8.427590370178223
33284,,18.310853958129883,,
33285,13.406469667853582,,3.7828385829925537,-9.84495735168457
33304,,9.792284965515137,,
33305,5.5799249902421195,,2.801215887069702,4.20421838760376
33324,,7.0988078117370605,,
33325,5.308655727942563,,-4.137180328369141,-1.886630892753601
33344,8.91416049806452,9.476250648498535,-6.066906929016113,
33345,,,,-6.8043212890625
33364,3.7303549864034338,12.205639839172363,-1.7980455160140991,-2.6839001178741455
33384,2.6826682014739016,11.15697956085205,0.8858546018600464,-2.82515811920166
33405,2.2351926361290357,9.634267807006836,1.3742717504501343,-2.4899697303771973
33424,2.7915065112125985,8.121131896972656,1.4891934394836426,-2.4684219360351562
33443,,5.796362400054932,,
33444,4.441485482266555,,1.7501614093780518,-0.8954314589500427
33463,,4.393360137939453,,
33464,5.821909190070869,,1.900996208190918,-0.6607996821403503
33483,,3.2632968425750732,,
33484,6.626574059395129,,0.9097966551780701,-1.3838485479354858
33504,5.850712346452994,3.883395195007324,-0.3280056416988373,-1.1037269830703735
33523,3.2681279423857834,6.5050458908081055,,
33524,,,-1.115697979927063,-0.8164227604866028
33543,,8.882488250732422,,
33544,1.4163705946510652,,-1.5729905366897583,-0.4572925269603729
33563,2.3254302129286564,8.937555313110352,-1.5825673341751099,0.7972691655158997
33583,2.747386297176257,7.5201873779296875,-1.479616641998291,0.35434186458587646
33603,3.5026709038522816,6.275202751159668,-1.1563993692398071,-0.5123591423034668
33623,1.9940617739101152,7.829039573669434,-0.7613561153411865,-0.21787235140800476
33643,2.181084298122183,10.192116737365723,,
33644,,,-1.2521674633026123,1.4197616577148438
33663,2.2823596502567507,11.128249168395996,-1.1300631761550903,1.2306196689605713
33683,1.7403283570125978,10.797849655151367,-1.1875240802764893,0.8690952062606812
33702,,10.757147789001465,,
33703,3.8979601978757596,,-3.754108190536499,1.845929503440857
33722,5.7306727793646,13.194445610046387,-4.577713489532471,2.231395959854126
33742,5.624340612122189,14.154520034790039,-0.8954314589500427,
33743,,,,3.1052796840667725
33762,4.834409308974491,14.563928604125977,,
33763,,,-0.7158663272857666,-0.6344634294509888
33782,,12.725181579589844,,
33783,8.413206944229161,,-2.7964274883270264,-8.090007781982422
33803,7.503416681876028,10.764330863952637,-4.352658748626709,-7.419631004333496
33822,2.691622211888355,11.571176528930664,,
33823,,,-3.002328872680664,0.21308395266532898
33842,,13.328520774841309,,
33843,4.464295200882778,,0.7996633648872375,-1.192312479019165
33863,10.835142561639634,16.421829223632812,2.2218191623687744,-8.147468566894531
33883,5.725623830598001,13.584700584411621,1.4724340438842773,-3.246537446975708
33902,,10.733205795288086,,
33903,1.8470267580424835,,-2.4684219360351562,-2.075772762298584
33923,2.6908965714735156,9.11233139038086,-4.326322555541992,-0.8571242094039917
33942,,7.556100368499756,,
33943,3.905969838586039,,-4.922478675842285,-0.5267243981361389
33962,,5.817910194396973,,
33963,4.088002137304893,,-2.980781078338623,-0.727837324142456
33981,,4.37420654296875,,
33982,5.458919037511499,,-0.13168109953403473,-1.278503656387329
34002,,3.4835634231567383,,
34003,6.820355846708617,,1.5418659448623657,-1.599326729774475
34022,6.197640788459221,3.995922565460205,,
34023,,,1.4221558570861816,-1.0438719987869263
34042,,4.299986362457275,,
34043,5.581859545939918,,0.2992752194404602,-0.35673606395721436
34062,,5.2911858558654785,,
34063,4.592356152469876,,-0.8547300100326538,0.05267243832349777
34082,3.7083912677025546,6.4834980964660645,,
34083,,,-1.3503297567367554,0.47884035110473633
34102,3.644233061764776,6.5912370681762695,,
34103,,,-0.7182605266571045,0.6153098344802856
34122,,7.817068576812744,,
34123,2.4601173608588716,,-0.4118026793003082,0.24899697303771973
34142,2.4620977663822297,10.759542465209961,-0.7422025203704834,0.9983820915222168
34162,,13.453019142150879,,
34163,,,-0.6153098344802856,1.3503297567367554
34182,,12.950237274169922,,
34183,4.144043860508991,,0.9528923034667969,-2.6168625354766846
34202,3.575661423325454,10.218452453613281,,
34203,,,1.766920804977417,-3.1196448802948
34221,,12.401965141296387,,
34222,4.400072244571251,,2.4420857429504395,0.31842881441116333
34241,,14.214375495910645,,
34242,8.291052202878678,,1.4532804489135742,5.8203043937683105
34261,,12.437877655029297,,
34263,5.191547882696929,,-4.228160381317139,1.7621324062347412
34281,,16.369157791137695,,
34282,9.799935040939845,,-4.314351558685303,-6.9695210456848145
34301,,18.95728874206543,,
34302,14.05227438549623,,1.3263877630233765,-11.425130844116211
34321,5.514704381605954,13.802573204040527,,
34322,,,3.3638534545898438,-0.4668693244457245
34341,,6.890512466430664,,
34342,4.891013425569548,,-2.494758129119873,1.8363527059555054
34361,,7.608773231506348,,
34362,8.96236732203812,,-6.189011573791504,-7.103596210479736
34381,,11.856086730957031,,
34382,4.6251410385484295,,-1.8986018896102905,-4.613626480102539
34400,,13.249512672424316,,
34401,4.402908248385511,,2.185906171798706,-2.6168625354766846
34420,,9.77791976928711,,
34421,2.5222700034202936,,2.2601263523101807,-2.2002713680267334
34440,,7.644686222076416,,
34441,3.563369912464413,,,
34442,,,1.5897499322891235,-3.622427225112915
34460,,6.466738700866699,,
34461,3.679068802899686,,1.2856862545013428,-2.3535003662109375
34480,,4.999093055725098,,
34481,4.880082244492678,,1.0342950820922852,-1.161187767982483
34500,5.815951727329664,3.9600095748901367,0.629675030708313,
34501,,,,-1.3455413579940796
34520,6.0181197901093215,3.667917013168335,,
34521,,,-0.3902548849582672,-1.192312479019165
34540,4.687430622858989,5.106832027435303,,
34541,,,-1.0127472877502441,-0.6129156351089478
34560,2.186362924685639,8.027758598327637,,
34561,,,-1.0247182846069336,-0.2561795711517334
34579,,9.550470352172852,,
34580,2.020849981599902,,-1.4891934394836426,0.2106897532939911
34599,,8.271966934204102,,
34600,2.9233639437190373,,-1.9297266006469727,0.7469909191131592
34619,3.2403357675610787,7.053318023681641,,
34620,,,-2.027888774871826,0.05027823522686958
34640,2.785361604757377,7.189787864685059,-1.721431016921997,-0.4429273009300232
34659,,9.059659004211426,,
34660,2.7507985429510042,,-1.3766659498214722,1.659181833267212
34679,,11.109095573425293,,
34680,3.8800336077306263,,-1.158793568611145,2.8179752826690674
34699,,11.604695320129395,,
34700,2.717096988164173,,-0.9552865028381348,1.3263877630233765
34719,1.7218112386816362,10.807426452636719,-2.0422539710998535,-0.31364041566848755
34739,4.545372993431239,12.413935661315918,,
34740,,,-3.5410242080688477,1.8267759084701538
34759,4.1268976643812465,13.21599292755127,,
34760,,,-1.766920804977417,1.4748282432556152
34778,,12.648567199707031,,
34779,5.270121570321391,,1.6184803247451782,3.043030261993408
34799,4.8852138626310495,13.431471824645996,-0.035913024097681046,-3.624821424484253
34818,,10.87446403503418,,
34819,6.334791049175872,,-3.2345664501190186,-6.368576526641846
34838,,8.422801971435547,,
34839,6.382143095252664,,-4.917690277099609,-5.772420406341553
34858,,9.033323287963867,,
34859,1.305261816749062,,-2.3965959548950195,-1.455674648284912
34878,,13.474567413330078,,
34879,5.152944904277887,,0.5889736413955688,-3.5266590118408203
34898,,16.53914451599121,,
34899,9.75501259306814,,0.9457096457481384,-7.225700855255127
34918,6.059791825247137,14.72673511505127,,
34919,,,0.5985504388809204,-3.3039982318878174
34938,2.9027493631127146,11.99255657196045,,
34939,,,-3.2824504375457764,-1.3670891523361206
34958,,9.643844604492188,,
34959,3.9325781442064858,,-5.4444146156311035,-0.07182604819536209
34978,,7.771578788757324,,
34979,4.069074504703631,,-5.152322292327881,-0.4141969084739685
34997,,6.050147533416748,,
34998,3.7572787534306586,,-2.6168625354766846,-1.1109095811843872
35017,,4.704606533050537,,
35018,5.15864535093172,,-0.021547814831137657,-1.7908629179000854
35038,6.090073948804259,4.098873138427734,1.235408067703247,-1.9584569931030273
35057,,4.534617900848389,,
35058,5.606953472795521,,1.2952631711959839,-0.9648633003234863
35077,,4.5394062995910645,,
35078,5.627664231793733,,0.42616790533065796,0.5530605912208557
35098,4.817129509323444,5.360617637634277,,
35099,,,-0.7422025203704834,0.6703764796257019
35117,,6.53377628326416,,
35118,3.3950444964946644,,-1.2952631711959839,-0.35673606395721436
35137,3.611853735115755,6.380547523498535,,
35138,,,-0.002394201699644327,-0.1412578970193863
35156,,7.65186882019043,,
35157,3.0252115727357736,,1.0821791887283325,
35158,,,,-0.09576806426048279
35177,2.6925650484096,10.280701637268066,1.139639973640442,0.5099649429321289
35196,,13.201627731323242,,
35197,4.683705739773488,,,
35198,,,1.137245774269104,1.2737152576446533
35217,,13.160926818847656,,
35218,4.1212217193549545,,1.4891934394836426,-1.0845733880996704
35236,2.8608134669402956,11.556811332702637,,
35237,,,0.9361328482627869,-2.31758713722229
35256,3.567886028830192,12.619836807250977,,
35257,,,0.17238251864910126,1.2018892765045166
35276,7.318940024836807,13.960590362548828,,
35277,,,-0.5937620401382446,5.2911858558654785
35296,,11.60708999633789,,
35297,7.254913769557219,,-4.608838081359863,4.9368438720703125
35316,,15.243882179260254,,
35317,8.100548205250428,,-4.10366153717041,-5.279214859008789
35336,,19.99158477783203,,
35337,15.241513752087688,,1.522712230682373,-11.882423400878906
35355,,15.083470344543457,,
35356,7.646499840341959,,4.7836151123046875,-3.423708438873291
35376,,6.165069580078125,,
35377,5.69179632542805,,-0.28969839215278625,3.3470940589904785
35396,7.532400716031709,6.076483726501465,-5.231330871582031,-4.422090530395508
35415,,8.283937454223633,,
35416,6.2151205695342435,,-3.754108190536499,-5.224148273468018
35435,,12.097901344299316,,
35436,2.6969802782853196,,0.9600749015808105,-1.9847931861877441
35455,,11.990161895751953,,
35456,3.3014002112433087,,2.1068975925445557,-2.3774423599243164
35475,2.777634059578962,10.5344877243042,1.3623007535934448,
35476,,,,-3.3686418533325195
35495,2.3698918471627635,7.872135162353516,1.259350061416626,
35496,,,,-1.742978811264038
35515,,5.825092792510986,,
35516,4.388595600764087,,1.7525556087493896,-0.629675030708313
35535,5.779384332622304,4.278438568115234,1.6041151285171509,
35536,,,,-0.9074024558067322
35554,,3.9408559799194336,,
35555,5.903965745449198,,0.49799394607543945,-1.7286136150360107
35575,3.79052290940139,6.0405707359313965,-0.9792284965515137,-0.4405331015586853
35594,,8.834604263305664,,
35595,2.0126640395132287,,-1.821987509727478,0.14604631066322327
35614,,9.48343276977539,,
35615,2.766795196381894,,-1.9081788063049316,1.314416766166687
35634,,7.4100542068481445,,
35635,4.021865685844158,,-1.8818424940109253,2.03507137298584
35654,5.5278444312766695,4.661510944366455,,
35655,,,-2.1380221843719482,0.8164227604866028
35674,,5.092466831207275,,
35675,4.74330329651391,,-1.6831238269805908,-0.44771572947502136
35694,,8.825027465820312,,
35695,1.052961675277969,,-0.38307225704193115,-0.3878606855869293
35714,3.0855208876216054,11.84650993347168,,
35715,,,0.33039984107017517,1.3455413579940796
35734,3.1034475598754643,11.585541725158691,,
35735,,,-0.16759411990642548,1.8507179021835327
35754,2.7707478980944695,10.977415084838867,,
35755,,,-2.896984100341797,0.5841852426528931
35774,5.525721831658219,11.753135681152344,-5.813121795654297,0.5985504388809204
35793,,13.144166946411133,,
35794,5.265515968710763,,-4.228160381317139,1.9057846069335938
35813,,12.18648624420166,,
35814,4.277639384047137,,1.460463047027588,2.126051187515259
35833,,12.495338439941406,,
35834,5.2322122689213195,,2.935291290283203,1.6519991159439087
35853,,12.96460247039795,,
35854,5.049285974162778,,-1.1228805780410767,-4.206612586975098
35873,,12.543222427368164,,
35874,6.035922597481118,,-3.8714241981506348,-5.0685248374938965
35893,,10.213664054870605,,
35894,5.382455844441123,,-4.5825018882751465,-4.991910457611084
35913,,9.6989107131958,,
35914,0.7309569497067006,,-1.290474772453308,-0.15801730751991272
35932,,13.182474136352539,,
35933,5.713919512049986,,0.27054479718208313,-4.790797710418701
35953,,15.121777534484863,,
35954,7.545683014367905,,0.3232172429561615,-5.475539207458496
35972,,14.132972717285156,,
35973,4.876289197211222,,-0.6727706789970398,-2.315192937850952
35992,,11.405977249145508,,
35993,2.1851609940216536,,,
35994,,,-2.978386878967285,-1.01753568649292
36012,,8.762778282165527,,
36013,2.5682052740129193,,-3.8546648025512695,0.06464344263076782
36032,,6.5481414794921875,,
36033,3.5350008598445295,,-3.2800562381744385,-0.6392518281936646
36052,,4.766855716705322,,
36053,4.924886502734792,,-1.7405846118927002,-1.6280571222305298
36072,5.333325306568463,4.4532151222229,,
36073,,,-0.3423708379268646,-1.7118542194366455
36092,5.167856735664839,4.838681697845459,,
36093,,,0.6033388376235962,-0.5722141861915588
36112,4.6980526968581415,5.451597213745117,0.6033388376235962,0.05506663769483566
36131,,5.628767967224121,,
36132,4.420145835714516,,0.016759412363171577,0.22744916379451752
36151,,6.835445880889893,,
36152,3.2107104293094486,,-0.45489832758903503,0.1149216815829277
36171,,7.053318023681641,,
36172,3.2677657853875353,,0.05985504388809204,0.4213795065879822
36192,3.331950250425939,7.196970462799072,,
36193,,,0.4596867263317108,0.5554547905921936
36211,,8.14028549194336,,
36212,2.530117770684344,,-0.19153612852096558,0.7374141216278076
36231,2.181350128586396,10.606313705444336,-1.039083480834961,0.9481038451194763
36251,2.8752489396831233,12.143390655517578,,
36252,,,-0.667982280254364,0.6009446382522583
36271,,12.00452709197998,,
36272,3.8925359850955354,,0.9361328482627869,-3.3518824577331543
36291,3.749957020831179,11.188104629516602,2.4612393379211426,-1.721431016921997
36311,,14.79616641998291,,
36312,7.314115948920813,,2.473210334777832,3.404554843902588
36331,6.63494730855894,14.267047882080078,-0.545877993106842,4.065354347229004
36350,,15.488090515136719,,
36351,6.688299113506982,,-3.6822822093963623,-2.1523873805999756
36370,,18.128894805908203,,
36371,10.179463030549893,,-2.762908697128296,-6.13633918762207
36390,,16.2278995513916,,
36391,8.148474951975293,,0.06464344263076782,-5.92325496673584
36410,,9.373299598693848,,
36411,3.289166011676541,,-0.2106897532939911,2.1811177730560303
36430,,5.743690013885498,,
36431,5.2839494837296135,,-3.3710360527038574,-1.656787633895874
36450,7.4602901797067975,5.731719017028809,-3.4189200401306152,
36451,,,,-5.987898349761963
36470,3.407730480747993,11.168951034545898,1.7405846118927002,-3.318363666534424
36490,4.5911554807784105,13.041216850280762,,
36491,,,3.028665065765381,-1.7812861204147339
36510,2.1502795281672964,10.498574256896973,1.216254472732544,-2.540247917175293
36549,,5.834669589996338,,
36550,3.9879520889434588,,0.4812345504760742,-0.8403648138046265
36588,6.277400569029568,3.5170822143554688,-0.040701430290937424,-1.7549498081207275
36747,3.696217980450935,10.165780067443848,-0.35913026332855225,2.5498247146606445
36786,,11.022904396057129,,
36787,1.7223248152101698,,-1.5155296325683594,-0.18914192914962769
36827,5.4546501409714985,13.196839332580566,-3.5865142345428467,2.1164743900299072
36866,5.944825482064804,13.275848388671875,1.4939818382263184,3.201047658920288
36906,,10.754754066467285,,
36907,6.210623026629957,,,
36946,1.7327636244049311,10.66137981414795,-1.8171991109848022,0.009576806798577309
36986,8.365635889193744,15.140931129455566,,
36987,,,1.2497732639312744,-6.866570472717285
37026,2.8076448707874335,10.342951774597168,-4.043806552886963,-0.6919242739677429
37066,3.7307684812915602,6.605602264404297,-3.464409828186035,-0.912190854549408
37106,,4.436455726623535,,
37107,5.531966858009476,,0.7709329724311829,-1.9536685943603516
37146,4.547485520317258,5.765237808227539,1.3479355573654175,-0.3016694188117981
37185,,7.259219646453857,,
37186,3.1451089458669106,,-1.280897855758667,0.2537853717803955
37226,3.9745415909069464,6.205770969390869,-0.08140286058187485,0.40701428055763245
37265,,11.860875129699707,,
37266,2.7526527094944093,,-0.33518823981285095,0.4118026793003082
37306,3.391683668114293,12.02607536315918,,
37307,,,1.8267759084701538,-1.8291701078414917
37344,,14.204798698425293,,
37345,7.737234615772726,,2.8802247047424316,4.709394931793213
37385,,10.848128318786621,,
37386,5.77786535212995,,-5.832275390625,-0.5578489899635315
37425,,16.452953338623047,,
37426,11.206310633310764,,1.6519991159439087,-9.653421401977539
37465,,5.832275390625,,
37466,5.2103441349529565,,-3.1651346683502197,-0.5578489899635315
37505,3.506850758592671,12.435483932495117,-1.2880805730819702,-2.5929205417633057
37545,,9.653421401977539,,
37546,1.367288335078955,,0.811634361743927,-2.1954829692840576
37584,,7.857769966125488,,
37585,1.9592531424902786,,0.28969839215278625,-1.2497732639312744
37638,,4.49870491027832,,
37639,5.2531864850260135,,,
37640,,,-0.14844051003456116,-0.8834604024887085
37643,,4.235342979431152,,
37644,5.516213015586436,,-0.608127236366272,-1.7166426181793213
37664,4.360770490968579,5.406107425689697,,
37665,,,-0.9624691009521484,-0.5482721924781799
37684,2.244461873220794,8.109161376953125,-0.828393816947937,0.2753331959247589
37704,2.7844389731510795,8.667010307312012,-0.7757213711738586,
37705,,,,1.3335703611373901
37723,3.7384344406389642,6.8809356689453125,,
37724,,,-0.811634361743927,1.3551181554794312
37743,,4.786009311676025,,
37744,4.982591459408165,,-0.9983820915222168,-0.2059013396501541
37763,,4.90571928024292,,
37764,4.95592200792228,,-0.3878606855869293,-1.843535304069519
37783,,10.108319282531738,,
37784,1.5811313660036819,,0.6129156351089478,-0.790086567401886
37803,5.617871663285526,14.592658996582031,,
37804,,,1.0103530883789062,1.3527239561080933
37823,4.05266472078697,13.0914945602417,-0.5051765441894531,1.5394717454910278
37843,3.9963654456527773,10.046070098876953,-4.596867084503174,0.304063618183136
37863,6.6117397974673855,11.32457447052002,-7.000645637512207,1.4891934394836426
37883,4.833250220450152,13.146561622619629,-2.516305923461914,2.650381326675415
37903,5.935129756649932,14.300566673278809,1.9081788063049316,1.8387469053268433
37923,,14.45619010925293,,
37924,7.1496060776402,,-0.5530605912208557,-5.719748020172119
37942,,11.659762382507324,,
37943,7.749381256014845,,-4.304774761199951,-7.407660007476807
37962,,9.871294021606445,,
37963,5.165119841995705,,-5.315127849578857,-4.311957359313965
37982,1.178068199103858,10.412383079528809,,
37983,,,-1.6879122257232666,-0.040701430290937424
38002,,13.97256088256836,,
38003,8.187706864633826,,1.280897855758667,-6.892906665802002
38021,7.485217467100416,14.652514457702637,,
38022,,,1.381454348564148,-5.212177276611328
38041,3.32602134449086,12.78503704071045,-1.1875240802764893,-1.4197616577148438
38061,,10.87446403503418,,
38062,2.706058211721812,,-4.223371982574463,-1.357512354850769
38081,3.4036466116443416,8.832210540771484,-5.125985622406006,-0.5530605912208557
38102,3.706977996604454,6.780379295349121,-4.156333923339844,-0.7493851184844971
38122,4.41326389346472,5.202600479125977,-1.5466543436050415,-1.1324573755264282
38141,,4.422090530395508,,
38142,5.586460585211103,,0.42856210470199585,-1.702277421951294
38161,,4.675876140594482,,
38162,5.599459329117623,,1.256955862045288,
38163,,,,-1.4915876388549805
38181,5.441123193743831,4.7620673179626465,,
38182,,,1.1468225717544556,-0.5051765441894531
38201,4.935475187758469,5.197812080383301,0.5195417404174805,
38202,,,,0.20350714027881622
38220,3.549155153565021,6.457161903381348,-0.5195417404174805,0.17238251864910126
38240,3.5166280036235196,6.562506675720215,-0.5506663918495178,0.3280056416988373
38260,3.573570451152201,6.5050458908081055,-0.2082955539226532,0.2322375625371933
38279,,7.838616371154785,,
38280,2.5026040819838262,,-0.3016694188117981,0.363918662071228
38299,3.6221298167631795,11.51850414276123,-0.5913678407669067,1.987187385559082
38320,4.783988617108432,13.869610786437988,0.15801730751991272,0.9648633003234863
38340,4.2219565179664755,12.533645629882812,1.280897855758667,-2.9903578758239746
38360,4.007393441404758,10.99896240234375,2.585737943649292,-2.1475989818573
38380,6.092750819525457,13.515268325805664,2.6599581241607666,2.3989901542663574
38400,6.453028347963392,12.698845863342285,,
38401,,,-0.021547814831137657,4.912901878356934
38419,5.896208446777604,14.255077362060547,-3.7924153804779053,-2.8874073028564453
38439,,18.45929527282715,,
38440,12.25116334957496,,-1.778891921043396,-9.332598686218262
38459,,17.963695526123047,,
38460,10.533121819927723,,1.8818424940109253,-7.110779285430908
38478,4.669845497467217,8.468291282653809,-0.7829039692878723,3.3925838470458984
38498,7.1820424465198816,5.195417881011963,-5.635950565338135,-0.9672574996948242
38518,,6.6846113204956055,,
38519,9.147711929489356,,-5.504269599914551,-7.412448406219482
38538,3.892252753900258,11.671732902526855,1.2401964664459229,-3.845088005065918
38559,5.418234182620279,13.175292015075684,3.754108190536499,-2.2888567447662354
38578,,10.87446403503418,,
38579,2.830371449225062,,1.86508309841156,-2.5474305152893066
38598,1.9185783831362087,8.755595207214355,0.7038952708244324,-2.432508945465088
38618,,6.988674640655518,,
38619,2.9632945480068416,,0.7661445140838623,-0.9720458984375
38638,5.148162973404438,4.707000732421875,0.608127236366272,
38639,,,,-0.7206547260284424
38658,6.3658111769764245,3.3925838470458984,-0.10055647045373917,-1.6304513216018677
38678,,3.955221176147461,,
38679,5.761508205898923,,-0.9169792532920837,-1.2018892765045166
38698,2.4867955537824686,7.223306655883789,-0.9385270476341248,-1.0271124839782715
38718,,9.682151794433594,,
38719,1.3762884605501027,,-0.9169792532920837,0.011971008032560349
38738,,9.0859956741333,,
38739,3.060890241786795,,-1.0558429956436157,1.6519991159439087
38758,,7.378929615020752,,
38759,2.946707397743291,,-1.8579005002975464,0.36152446269989014
38778,,6.191405773162842,,
38779,3.564471184671715,,-1.4413094520568848,-0.790086567401886
38798,,7.491456985473633,,
38799,3.0395272103127233,,0.40222588181495667,0.7110779285430908
38818,3.7739762894977766,9.667786598205566,,
38819,,,0.608127236366272,2.693476915359497
38838,,10.977415084838867,,
38839,3.349782048437434,,-1.139639973640442,2.3965959548950195
38858,,11.496956825256348,,
38859,3.0377974439125626,,-3.24414324760437,-1.072602391242981
38878,4.401304459108966,12.045228958129883,-4.41969633102417,0.5889736413955688
38897,,11.980585098266602,,
38898,4.143382640452145,,-3.155557870864868,2.097320795059204
38917,,12.361263275146484,,
38918,4.425061267493292,,0.26096799969673157,2.8227639198303223
38938,5.786053945269466,13.467384338378906,1.7262194156646729,3.0526070594787598
38957,,13.467384338378906,,
38958,8.702851049744732,,-1.2234370708465576,-8.238448143005371
38978,8.719864750084465,11.494562149047852,-2.9472622871398926,-8.863334655761719
38997,2.2157209970099068,10.47942066192627,,
38998,,,-2.410961151123047,-2.542642116546631
39018,,10.99896240234375,,
39019,1.8851472300295113,,-0.4213795065879822,-0.0933738648891449
39037,7.256107257290019,13.898341178894043,,
39038,,,-0.05506663769483566,-6.440402507781982
39056,,13.85763931274414,,
39057,6.177692694196255,,-0.31364041566848755,-5.099649429321289
39076,,12.598289489746094,,
39077,3.285748549691427,,-3.0166940689086914,-1.1252747774124146
39097,4.073310436261426,11.30302619934082,,
39098,,,-5.327098846435547,-0.5554547905921936
39116,,9.006986618041992,,
39117,4.032188838487557,,-5.394136428833008,0.26575639843940735
39136,,6.768408298492432,,
39137,3.3390139971197224,,-3.265691041946411,
39138,,,,-0.7015010714530945
39156,5.070446982459112,4.659116744995117,-0.5506663918495178,
39157,,,,-1.216254472732544
39176,6.556678151422995,3.7277719974517822,1.3718775510787964,
39177,,,,-1.9081788063049316
39196,,4.158728122711182,,
39197,6.162667739163785,,1.6687586307525635,-1.1875240802764893
39216,4.958487030126195,5.078101634979248,0.8188169598579407,-0.6009446382522583
39235,,5.937620162963867,,
39236,3.972072502166014,,-0.047884032130241394,-0.22744916379451752
39255,,6.971915245056152,,
39256,3.334361219869238,,-0.8523358106613159,
39257,,,,0.5315127968788147
39275,,6.54574728012085,,
39276,3.645265691254736,,-0.4405331015586853,0.395043283700943
39295,,7.086836814880371,,
39296,3.226407469934376,,0.2298433631658554,0.2322375625371933
39315,,9.569623947143555,,
39316,2.529883969778696,,0.23942017555236816,0.9457096457481384
39335,3.5680739315225165,11.69806957244873,0.07182604819536209,
39336,,,,1.53707754611969
39355,2.587795178074763,11.293449401855469,,
39356,,,0.07900865375995636,0.730231523513794
39376,5.547789592292732,10.809821128845215,2.078166961669922,-5.652710437774658
39395,4.560976793172854,11.595118522644043,3.531447410583496,-0.8619126081466675
39415,,15.7107515335083,,
39416,7.819759810483462,,2.2361843585968018,3.2848446369171143
39435,6.60268111824422,14.401123046875,,
39436,,,-1.5634137392044067,3.622427225112915
39455,5.701760324740181,11.51850414276123,-4.999093055725098,1.8579005002975464
39475,5.719356317115494,14.863204002380371,-2.8395233154296875,-1.2665326595306396
39494,,16.608577728271484,,
39495,9.91944906058433,,0.5961562395095825,-8.001421928405762
39515,6.510319074789376,13.46020221710205,1.6208745241165161,-6.112396717071533
39534,3.489766282177595,7.484274387359619,,
39535,,,-2.185906171798706,0.21308395266532898
39554,6.897225538090734,6.780379295349121,,
39555,,,-5.705382823944092,-3.00711727142334
39574,3.582637955963558,10.685321807861328,-1.8291701078414917,
39575,,,,-3.734954595565796
39594,4.83086152285268,12.198457717895508,3.2130186557769775,-3.8067808151245117
39614,3.8892819947664443,10.584765434265137,3.6966474056243896,-2.3271639347076416
39633,,9.619902610778809,,
39634,2.2517583122587053,,1.3838485479354858,-3.0095114707946777
39654,1.709033481437338,8.015787124633789,0.019153613597154617,-1.3000515699386597
39673,,6.057330131530762,,
39674,3.825287557526377,,-0.37828385829925537,-0.2346317619085312
39694,5.7340473632346605,4.000710964202881,-0.4118026793003082,
39695,,,,-0.8451532125473022
39714,6.690435888120211,3.021482467651367,-0.38307225704193115,-1.6184803247451782
39733,,4.671087741851807,,
39734,5.090886721314169,,-0.17238251864910126,-0.6392518281936646
39753,2.4348618340115973,7.68538761138916,-0.24420857429504395,
39754,,,,-0.1628057211637497
39773,1.443820492563426,9.069235801696777,-0.5674257874488831,-0.2585737705230713
39793,2.7544079911948427,8.202534675598145,-0.8355764150619507,
39794,,,,0.7996633648872375
39813,,6.452373504638672,,
39814,3.460614535932685,,-1.1085153818130493,-0.2059013396501541
39833,3.13555772702744,6.57926607131958,,
39834,,,-0.569819986820221,-0.950498104095459
39853,,8.777143478393555,,
39854,2.09296641703864,,,
39855,,,-0.07422025501728058,0.5219359993934631
39873,2.362376243135212,11.487380027770996,-0.31124621629714966,
39874,,,,0.3495534360408783
39892,4.133959201886411,13.017274856567383,,
39893,,,-1.0295066833496094,1.41257905960083
39912,3.9111659740323246,12.902353286743164,,
39913,,,-2.10210919380188,0.8403648138046265
39932,4.26254284073676,11.848904609680176,,
39933,,,-4.055777549743652,0.7110779285430908
39952,5.618361052055562,13.160926818847656,-3.7684733867645264,
39953,,,,2.557007312774658
39972,,12.540828704833984,,
39973,4.766619068966264,,-0.2777273952960968,3.1004912853240967
39992,4.604069750472066,11.793837547302246,1.280897855758667,2.808398485183716
40011,,10.884040832519531,,
40012,6.956487566926202,,-0.7565677165985107,-7.42681360244751
40031,8.788226088673671,9.246406555175781,,
40032,,,-2.126051187515259,-9.3828763961792
40052,5.163492191465784,8.520963668823242,,
40053,,,-5.7556610107421875,-3.359065055847168
40071,5.996609047483367,14.911087989807129,,
40072,,,-4.402936935424805,-0.912190854549408
40091,,19.2613525390625,,
40092,10.230772639506243,,-0.33039984107017517,-4.062960147857666
40111,10.609072606492248,15.878345489501953,,
40112,,,3.043030261993408,-7.85537576675415
40132,4.586636179741369,10.852916717529297,1.6519991159439087,-3.4380736351013184
40151,1.9137994079391196,8.099584579467773,-2.7126305103302,-0.14604631066322327
40171,4.924961248719791,6.196194171905518,,
40172,,,-4.58968448638916,1.072602391242981
40191,5.123714006552987,5.286397457122803,-4.292803764343262,-0.9050082564353943
40211,,4.412513732910156,,
40212,5.410222352653481,,-2.0853497982025146,-2.3295583724975586
40230,,4.989516258239746,,
40231,5.076971022728513,,0.4141969084739685,-2.145204782485962
40250,4.62561793967601,6.145915985107422,1.7980455160140991,
40251,,,,-0.7972691655158997
40270,,6.160281181335449,,
40271,5.065015379871994,,1.9345149993896484,0.8236053586006165
40290,,5.949591159820557,,
40291,5.280400856869535,,1.0558429956436157,1.889025092124939
40311,2.8770207476777707,7.261613845825195,-0.40462008118629456,0.20111294090747833
40330,4.0113602490132045,5.7772088050842285,,
40331,,,-0.646434485912323,-0.40701428055763245
40350,5.246123563066814,4.752490520477295,0.06224924325942993,
40351,,,,0.3974374830722809
40370,4.674536517826568,5.458779811859131,-0.8906430602073669,0.8547300100326538
40390,3.4999757493405124,11.93748950958252,-2.0015525817871094,1.3742717504501343
40410,,14.867992401123047,,
40411,5.477728748080615,,-1.3263877630233765,0.7996633648872375
40430,3.6642811268730204,13.153743743896484,-0.033518824726343155,
40431,,,,-1.9823989868164062
40450,,12.540828704833984,,
40451,5.085277414922292,,2.123656988143921,-4.0078935623168945
40470,8.535154015302911,14.013262748718262,4.855441093444824,4.084507942199707
40489,,13.512874603271484,,
40490,7.042918919679517,,0.9576807022094727,4.965574264526367
40510,8.644918689069609,14.681244850158691,-3.5386300086975098,-7.1921820640563965
40529,12.605608560775636,19.912574768066406,-0.993593692779541,
40530,,,,-8.271966934204102
40549,11.965653539361043,19.412187576293945,1.723825216293335,
40550,,,,-7.90086555480957
40569,,9.44991397857666,,
40570,4.333312303540968,,-1.723825216293335,2.652775526046753
40589,9.033368875168515,4.965574264526367,-6.952761650085449,-3.2776620388031006
40608,7.905959052360292,7.766790390014648,,
40609,,,-4.060565948486328,-7.144298076629639
40628,,12.066776275634766,,
40629,4.020605420124678,,2.0638017654418945,-3.7205893993377686
40649,,11.097125053405762,,
40650,3.1173048260247076,,2.9496564865112305,-1.5921441316604614
40668,,10.620678901672363,,
40669,1.817544691121413,,1.1324573755264282,-2.456450939178467
40689,0.8630356245014631,9.279925346374512,0.016759412363171577,-2.0446481704711914
40708,,7.084442615509033,,
40709,2.827258235400274,,0.40462008118629456,-0.4141969084739685
40728,5.4025241603778875,4.527435302734375,1.094150185585022,-0.7038952708244324
40748,7.068162656577998,2.849100112915039,1.0965443849563599,-1.6735470294952393
40768,6.530779807948079,3.2800562381744385,,
40769,,,0.5410895943641663,-0.849941611289978
40788,4.105014590796166,5.729324817657471,-0.29209262132644653,-0.24181437492370605
40807,,8.492233276367188,,
40808,1.7867851588589092,,-0.9097966551780701,0.06703764945268631
40827,,8.880094528198242,,
40828,2.786807818495962,,-1.460463047027588,1.3551181554794312
40847,,6.7708024978637695,,
40848,3.802843214768824,,-1.7477672100067139,1.0247182846069336
40867,5.143704034314859,4.750096321105957,,
40868,,,-1.5275006294250488,-0.1173158809542656
40887,3.6271895011659048,6.165069580078125,,
40888,,,-0.1173158809542656,-0.933738648891449
40907,,9.730035781860352,,
40908,1.5791871679312248,,0.5650315880775452,0.2944868206977844
40927,,11.88002872467041,,
40928,3.273303190767168,,0.16519992053508759,
40929,,,,1.5825673341751099
40947,3.77890585125883,12.595894813537598,,
40948,,,-0.8092401623725891,1.723825216293335
40966,,11.853693008422852,,
40967,3.9492955412600863,,-3.7038300037384033,0.18914192914962769
40986,,12.526463508605957,,
40987,6.746876029031736,,-6.495469093322754,1.036689281463623
41007,6.744980818012128,14.362815856933594,-4.496310710906982,2.5474305152893066
41026,,13.958195686340332,,
41027,5.931499460680308,,1.1204863786697388,3.117250680923462
41046,,13.46259593963623,,
41047,4.345196819171586,,1.216254472732544,-1.2856862545013428
41086,,8.149862289428711,,
41087,6.868867670774659,,-5.125985622406006,-6.074089527130127
41124,,13.673285484313965,,
41125,4.066472385539279,,-1.0965443849563599,-0.5602431893348694
41277,,13.153743743896484,,
41278,5.59856970096231,,0.7829039692878723,-4.335899353027344
41284,5.954722913418049,4.077325344085693,0.24420857429504395,
41285,,,,-1.8076223134994507
41323,4.538312157282538,5.635950565338135,0.31124621629714966,0.3687070608139038
41363,3.64814263730853,6.421248912811279,,
41364,,,-0.9074024558067322,0.6488286852836609
41403,3.695471600904055,6.129156112670898,-0.7996633648872375,
41404,,,,0.026336219161748886
41443,4.212887908552671,12.78503704071045,-0.7924807667732239,2.032677173614502
41483,5.971444205930506,12.260706901550293,3.514688014984131,-3.2968156337738037
41523,,13.043610572814941,,
41524,7.258279216694547,,1.0414776802062988,5.535394191741943
41563,10.010433095123963,16.88869857788086,-3.069366693496704,
41564,,,,-7.266402244567871
41603,4.743230714382686,13.639766693115234,1.656787633895874,0.6344634294509888
41643,10.965448735870497,5.398924827575684,,
41644,,,-7.9631147384643555,-7.4100542068481445
41683,5.339095737888566,13.637372970581055,,
41684,,,2.8562827110290527,-2.8419175148010254
41723,2.083673398555576,10.0580415725708,0.9026140570640564,
41724,,,,-2.8131868839263916
41762,,4.467580318450928,,
41763,5.5237627810425085,,0.8954314589500427,-0.2944868206977844
41802,,3.1507694721221924,,
41803,6.567665319783397,,-0.6368576288223267,-1.1492167711257935
41842,,8.422801971435547,,
41843,1.4654479548187547,,-0.8092401623725891,-0.44771572947502136
41882,,6.993463039398193,,
41883,3.524229514685469,,-0.4381389021873474,1.0965443849563599
41922,4.636790119961993,5.080495834350586,-1.0558429956436157,
41923,,,,-0.7661445140838623
41962,4.744617424064075,12.557587623596191,,
41963,,,-0.5722141861915588,3.045424461364746
42002,5.289976596023333,11.4849853515625,-6.007051944732666,
42003,,,,-0.18914192914962769
42042,5.614326013484909,14.65011978149414,-2.3247697353363037,1.8291701078414917
42081,,12.631808280944824,,
42082,6.553477742857074,,2.849100112915039,-4.656722068786621
42121,,7.771578788757324,,
42122,6.785045212192336,,-5.679046630859375,-5.971138954162598
42160,,15.665261268615723,,
42161,6.544089514551501,,-0.7445967197418213,
42162,,,,-2.9903578758239746
42188,9.576032251238392,16.122554779052734,0.4429273009300232,-7.393294811248779
42200,,13.235146522521973,,
42201,5.357069225713525,,0.9600749015808105,-3.287238836288452
42220,,10.884040832519531,,
42221,1.4650755838679186,,-2.5474305152893066,-1.314416766166687
42240,2.484946323175803,8.655038833618164,,
42241,,,-3.976768970489502,0.033518824726343155
42260,3.689142023220667,6.457161903381348,-3.9049429893493652,
42261,,,,-0.8092401623725891
42279,,4.570530891418457,,
42280,5.004493792045707,,-2.073378562927246,-1.6639702320098877
42300,5.745195786714805,3.9839515686035156,,
42301,,,-0.35434186458587646,-1.5538369417190552
42320,5.567272581980803,4.491522312164307,,
42321,,,0.6153098344802856,-0.7134721279144287
42340,5.326979348972079,5.073313236236572,0.6727706789970398,
42341,,,,0.4213795065879822
42360,4.92926226684697,5.70777702331543,0.27054479718208313,1.0821791887283325
42380,,6.054935932159424,,
42381,4.284683966538866,,-0.5482721924781799,0.8259995579719543
42400,3.5004755786947825,6.411672115325928,-1.5203180313110352,-0.10534487664699554
42419,,6.722918510437012,,
42420,3.3747421448715986,,-1.5203180313110352,0.3878606855869293
42439,2.475316934811559,9.17936897277832,-0.5410895943641663,1.2665326595306396
42459,3.999569750534686,12.215216636657715,,
42460,,,0.9744400978088379,1.290474772453308
42479,4.599547173146292,11.872846603393555,,
42480,,,2.7916390895843506,-1.53707754611969
42499,4.21810795172229,10.60152530670166,2.853888511657715,-1.824381709098816
42519,,11.824962615966797,,
42520,4.538074064064788,,2.5306711196899414,-2.6168625354766846
42539,7.615134188395855,14.949395179748535,2.786850690841675,3.8307228088378906
42559,7.352809301652318,12.617443084716797,-1.3048399686813354,6.289567947387695
42579,5.6053533987478,9.847352027893066,-6.04775333404541,-0.038307227194309235
42598,,15.567099571228027,,
42599,9.174550590630533,,-2.8850131034851074,-7.082048416137695
42619,14.625729273684419,20.312406539916992,2.8802247047424316,-10.17296314239502
42638,,14.020444869995117,,
42639,5.5283069431862275,,2.985569477081299,0.7613561153411865
42658,6.634108417921162,5.702988624572754,-3.9264907836914062,2.5234885215759277
42678,,5.073313236236572,,
42679,12.440841455979275,,-8.552088737487793,-8.006210327148438
42698,,12.322956085205078,,
42699,5.701383643613203,,-2.63362193107605,-4.778826713562012
42720,5.67104129601465,14.731523513793945,,
42721,,,2.561795711517334,-1.8387469053268433
42737,3.518380674558391,11.204863548278809,3.1220390796661377,-1.625662922859192
42756,2.5556769365242227,8.901641845703125,,
42757,,,1.7118542194366455,-2.5689783096313477
42777,2.9484475851770915,6.907271862030029,0.5793967843055725,-1.1659762859344482
42796,4.750290510428987,5.073313236236572,0.42856210470199585,-0.6057330369949341
42816,6.232393413539683,3.5889084339141846,0.4812345504760742,-1.1875240802764893
42836,6.786982069399592,3.021482467651367,0.4381389021873474,-0.9959878921508789
42855,5.006663459915645,4.874594688415527,0.47884035110473633,-0.5386953949928284
42875,2.6340265842333017,7.398083209991455,-0.20350714027881622,-0.06224924325942993
42895,1.5702106196058845,9.074024200439453,-1.1659762859344482,0.15322890877723694
42915,3.048987492581666,7.556100368499756,-1.5753847360610962,0.8355764150619507
42935,3.713886960077526,6.172252178192139,-1.647210717201233,-0.21308395266532898
42954,,7.773972988128662,,
42955,2.009459298888425,,-1.381454348564148,-0.7038952708244324
42974,2.673993436441519,11.585541725158691,,
42975,,,-0.912190854549408,0.9002198576927185
42995,4.8830318310114365,13.012486457824707,-0.395043283700943,2.647987127304077
43014,3.352617715679101,10.591948509216309,-0.6512228846549988,2.47560453414917
43035,3.9073704447779978,8.432378768920898,-4.2975921630859375,0.5985504388809204
43055,6.696759240115203,11.966219902038574,-6.823474884033203,1.8698714971542358
43075,5.767039386559867,14.319720268249512,-3.023876667022705,2.47560453414917
43094,,14.015656471252441,,
43095,6.650030678126194,,2.0638017654418945,3.4165258407592773
43116,,12.720393180847168,,
43117,7.81569124275331,,0.026336219161748886,-7.503427982330322
43135,11.186319811069561,9.885659217834473,-3.222595453262329,-11.556811332702637
43154,3.208949306526276,9.749189376831055,,
43155,,,-4.0964789390563965,-2.6886885166168213
43174,4.711364625511539,13.907917976379395,-1.2066776752471924,
43175,,,,0.9600749015808105
43194,10.242409105034925,17.290924072265625,0.8331822156906128,-7.072471618652344
43214,,16.417041778564453,,
43215,9.335779777694908,,1.4197616577148438,-6.172252178192139
43235,1.3023812016878498,10.532093048095703,-2.073378562927246,-1.7525556087493896
43254,,9.02135181427002,,
43255,3.1577702250946995,,-5.015852451324463,-0.4189853072166443
43275,4.753973654000376,7.096413612365723,-5.669469833374023,0.40222588181495667
43295,3.4839949464728477,6.6127848625183105,-3.466804027557373,
43296,,,,-0.524330198764801
43314,,5.0685248374938965,,
43315,4.669237495923179,,-0.5889736413955688,-0.7637503147125244
43334,6.456379584667292,3.734954595565796,,
43335,,,1.1492167711257935,-1.5418659448623657
43353,,3.7253777980804443,,
43354,6.475722531100656,,1.3551181554794312,-1.4077905416488647
43373,,3.912125587463379,,
43374,6.122307944846715,,0.9145850539207458,-0.524330198764801
43395,4.997567920461803,5.102043628692627,0.07661445438861847,0.4884171485900879
43414,,7.005434036254883,,
43415,3.3559113855586484,,-0.9481038451194763,0.7374141216278076
43434,,7.422025203704834,,
43435,2.8279262072419704,,-1.1540051698684692,0.40940847992897034
43453,,7.975085735321045,,
43454,2.366522465821483,,-0.9576807022094727,0.4405331015586853
43474,,10.031704902648926,,
43475,2.0713995616741845,,-0.5961562395095825,0.9145850539207458
43494,,12.06198787689209,,
43495,3.50701691371123,,0.3974374830722809,1.192312479019165
43514,3.385924707097213,11.587936401367188,1.2210428714752197,0.871489405632019
43534,3.3459300127388327,11.188104629516602,0.6512228846549988,-3.2154128551483154
43553,,13.742717742919922,,
43554,6.278185652064385,,3.8570590019226074,-1.3886369466781616
43575,10.070913268784654,14.52562141418457,4.4508209228515625,
43576,,,,6.536170482635498
43594,4.511852338390242,11.959037780761719,-2.360682964324951,2.8826189041137695
43613,,15.758635520935059,,
43614,11.603506255519278,,-4.8722004890441895,-9.512163162231445
43634,15.997912270714712,19.668367385864258,,
43635,,,0.304063618183136,-13.189657211303711
43653,6.219747338759655,14.891934394836426,3.2178070545196533,
43654,,,,-0.23942017555236816
43673,7.275430998210126,5.5760955810546875,-3.1723172664642334,3.9480385780334473
43693,,5.858611583709717,,
43694,10.792560869283411,,-8.032546997070312,-6.552929878234863
43713,7.375196292657207,12.136208534240723,-4.19224739074707,
43714,,,,-6.179434776306152
43733,,13.883975982666016,,
43734,4.866566528091327,,0.3878606855869293,-3.380612850189209
43754,2.4684382374597345,10.809821128845215,1.9369091987609863,-1.7621324062347412
43773,3.243233900228566,8.516175270080566,2.367865562438965,-2.6408045291900635
43792,,7.163451671600342,,
43793,3.9730333657504326,,2.7748796939849854,-1.2234370708465576
43813,5.040571025410418,5.202600479125977,1.7693150043487549,-0.5195417404174805
43832,,4.177882194519043,,
43833,5.6096993780252085,,0.35673606395721436,-1.1252747774124146
43853,5.564502312820068,4.1874589920043945,,
43854,,,-0.9768342971801758,-0.7326257228851318
43871,,5.099649429321289,,
43872,4.739805223350201,,-1.3263877630233765,-0.2944868206977844
43892,3.8219911596654104,6.275202751159668,-1.2401964664459229,0.36152446269989014
43912,3.173131984953211,7.053318023681641,,
43913,,,-1.5418659448623657,0.3208230137825012
43931,1.8195307940052161,8.073247909545898,,
43932,,,-1.1827356815338135,-0.4884171485900879
43951,1.9329369248204848,7.999027729034424,,
43952,,,-0.22266076505184174,-0.7110779285430908
43971,,8.813055992126465,,
43972,1.8381809244530172,,0.4213795065879822,-0.3758896589279175
43991,1.6650500165741213,9.667786598205566,,
43992,,,-0.028730420395731926,0.304063618183136
44011,3.0144524543013054,10.108319282531738,-0.7709329724311829,
44012,,,,1.9776105880737305
44031,3.609443432708275,9.971850395202637,,
44032,,,-1.3215993642807007,2.719813108444214
44051,2.8544063235460895,9.284713745117188,-3.335123062133789,0.40462008118629456
44071,5.235148540673887,11.034875869750977,-5.717353820800781,0.6871358752250671
44091,5.3723659714870315,13.433865547180176,-3.847482204437256,1.9033904075622559
44110,,14.13057804107666,,
44111,5.969759710897867,,,
44112,,,1.3000515699386597,2.5282769203186035
44131,6.3050689770936055,14.389152526855469,0.1364694982767105,-4.788403511047363
44150,,12.042834281921387,,
44151,8.322077460983019,,-4.017470359802246,-8.288725852966309
44170,,12.631808280944824,,
44171,8.381034840347413,,-6.648698329925537,-6.9695210456848145
44191,3.997027723363686,13.18008041381836,-2.650381326675415,0.0071826050989329815
44210,,12.847286224365234,,
44211,7.012676205520726,,3.9049429893493652,-3.5170822143554688
44230,12.029016381542668,14.228740692138672,5.600037574768066,
44231,,,,-9.253589630126953
44250,5.042410467257946,12.337321281433105,,
44251,,,1.702277421951294,-3.5003228187561035
44270,2.7853578384871183,11.604695320129395,-3.1244332790374756,-2.6144683361053467
44290,3.4561547154127976,10.704475402832031,-4.900930881500244,
44291,,,,-0.751779317855835
44309,,8.686163902282715,,
44310,3.4894797390416423,,-4.867412090301514,
44311,,,,-0.3926490843296051
44329,,6.648698329925537,,
44330,3.3262611865486655,,-2.8203697204589844,-0.5051765441894531
44349,,4.714183330535889,,
44350,5.023996372488862,,-0.4596867263317108,-0.7350199222564697
44370,,3.4356794357299805,,
44371,6.515670959164198,,0.7972691655158997,-1.4891934394836426
44390,6.247385927939556,3.6846764087677,0.7996633648872375,-1.0893617868423462
44409,5.137010596509642,4.908113479614258,0.11013327538967133,
44410,,,,0.21308395266532898
44429,4.117631747113137,5.932831764221191,-0.8307880163192749,0.23942017555236816
44449,,6.952761650085449,,
44450,3.0904094501308412,,-1.2976573705673218,-0.1149216815829277
44468,,6.914454460144043,,
44469,3.3134959900789878,,-0.35673606395721436,0.31842881441116333
44488,4.207637590866083,6.646304130554199,,
44489,,,0.7254431247711182,1.0989385843276978
44508,,6.955155849456787,,
44509,4.016653441305798,,0.4429273009300232,1.4077905416488647
44528,,9.411606788635254,,
44529,1.8854516238630294,,,
44530,,,-0.5722141861915588,0.7158663272857666
44548,3.359806476651129,12.36605167388916,-0.6129156351089478,0.993593692779541
44568,3.777582454930188,13.266271591186523,,
44569,,,-0.10773907601833344,-1.886630892753601
44588,,14.140154838562012,,
44589,5.856970535295389,,1.9153614044189453,-3.4955344200134277
44608,8.718197384620689,15.231911659240723,,
44609,,,3.691859006881714,4.065354347229004
44628,,13.685256958007812,,
44629,8.480237538591563,,0.2059013396501541,6.543353080749512
44647,,11.556811332702637,,
44648,4.391984505103178,,-4.4723687171936035,
44649,,,,-1.335964560508728
44667,,15.526397705078125,,
44668,10.599508065378664,,-2.38462495803833,-9.404424667358398
44687,,18.10734748840332,,
44688,13.912530402384235,,2.4181437492370605,-11.619060516357422
44707,,11.36048698425293,,
44708,3.98279662939107,,1.8076223134994507,
44709,,,,1.9584569931030273
44727,,6.294356346130371,,
44728,5.666915027935207,,-4.326322555541992,-0.3878606855869293
44747,,7.594407558441162,,
44748,8.340871021334118,,-5.655104637145996,-6.4595561027526855
44767,2.7883826530489353,11.245565414428711,-0.7589619159698486,
44768,,,,-3.002328872680664
44787,,12.05959415435791,,
44788,3.4103135534756945,,1.5514427423477173,-2.806004285812378
44807,1.8323720521482247,9.967061996459961,0.7589619159698486,-2.564189910888672
44827,,9.294290542602539,,
44828,1.1042889881156004,,0.4812345504760742,-1.8746598958969116
44846,,7.929595947265625,,
44847,2.2879544333075343,,1.0247182846069336,-0.6488286852836609
44867,4.589941405211126,5.564124584197998,1.5155296325683594,-0.8044517636299133
44885,,3.732560396194458,,
44886,6.259651361574144,,1.1659762859344482,-1.9393033981323242
44907,6.269045079475509,3.5242648124694824,0.0694318488240242,-1.9632453918457031
44926,,6.3302693367004395,,
44927,3.392991747373061,,-0.4213795065879822,-1.659181833267212
44946,,8.767566680908203,,
44947,1.6065250087089145,,-0.6105214357376099,-0.0454898327589035
44966,,8.848969459533691,,
44967,3.5169235882911796,,-1.290474772453308,2.011129379272461
44986,,7.649474620819092,,
44987,3.531521406968387,,-2.3127987384796143,1.137245774269104
45006,,5.889736175537109,,
45007,4.44119624544741,,-2.2242133617401123,0.586579442024231
45026,2.843893864943535,7.601590633392334,-0.9074024558067322,1.0031704902648926
45046,3.4123004058484385,9.126696586608887,,
45047,,,-0.7709329724311829,2.609679937362671
45066,3.1699236801057706,10.170568466186523,-2.583343744277954,
45067,,,,1.7932571172714233
45086,4.013430934830241,12.45463752746582,,
45087,,,-3.5913026332855225,-0.8619126081466675
45105,,12.047622680664062,,
45106,3.669753480370235,,-2.425326347351074,1.625662922859192
45125,,11.81299114227295,,
45126,3.2005984879155287,,-1.0654197931289673,1.8794482946395874
45146,2.4623415862119375,11.674127578735352,-0.9241618514060974,1.1013327836990356
45165,,13.409923553466797,,
45166,11.031077440333238,,-3.974374771118164,-10.27591323852539
45185,,11.001357078552246,,
45186,14.423377854557911,,-4.656722068786621,-14.410699844360352
45205,,14.654908180236816,,
45206,5.855295780571509,,-1.3215993642807007,2.1475989818573
45225,7.71793401320126,14.372392654418945,,
45226,,,2.279279947280884,4.019864559173584
45244,,13.840880393981934,,
45245,10.724921493420782,,2.2361843585968018,-10.000580787658691
45265,6.972532332144666,11.195286750793457,,
45266,,,-1.335964560508728,-7.501033782958984
45284,,8.688557624816895,,
45285,5.999144811083949,,-6.524199485778809,1.8363527059555054
45304,,11.099518775939941,,
45305,7.16881966594446,,-8.212111473083496,
45306,,,,-0.19153612852096558
45324,,10.711658477783203,,
45325,3.4531711212806524,,-4.4939165115356445,
45326,,,,-0.4644751250743866
45344,,8.501810073852539,,
45345,1.4592484282471565,,-0.49559974670410156,-1.601720929145813
45364,,6.268020153045654,,
45365,4.988224085970913,,2.1308395862579346,-2.6431987285614014
45384,6.427853662293303,4.613626480102539,2.7533318996429443,-2.205059766769409
45404,4.790626059057389,5.04218864440918,0.2346317619085312,-1.403002142906189
45424,4.199117913033473,5.7772088050842285,-1.8626888990402222,
45425,,,,-0.33518823981285095
45443,,5.9519853591918945,,
45444,4.156321360040006,,-2.1954829692840576,-0.44771572947502136
45463,,5.990292549133301,,
45464,3.823488128663634,,-0.9241618514060974,-0.4668693244457245
45483,3.7330736262952033,6.279991149902344,,
45484,,,0.6129156351089478,-0.5770025849342346
45503,,8.10437297821045,,
45504,3.380064096689513,,1.381454348564148,0.7326257228851318
45523,2.4292874022153605,10.199298858642578,0.047884032130241394,
45524,,,,0.9050082564353943
45543,,10.467450141906738,,
45544,2.1769700697741303,,-1.9847931861877441,0.43335050344467163
45563,1.5682923337068326,9.160215377807617,,
45564,,,-2.2840683460235596,-1.2066776752471924
45583,0.9965467432737618,9.765948295593262,,
45584,,,0.090979665517807,-0.6248866319656372
45603,3.053539323757498,10.721235275268555,2.0039467811584473,-1.158793568611145
45642,,14.09705924987793,,
45643,4.848750136263069,,-0.4836287498474121,1.1755530834197998
45681,19.550954123236703,26.293123245239258,-2.4013843536376953,
45682,,,,-11.216835021972656
45720,12.276542091231287,2.9903578758239746,-7.862558364868164,
45721,,,,5.935225963592529
45760,,3.160346269607544,,
45761,14.173495871855051,,-1.5729905366897583,-12.914323806762695
45800,,18.22466278076172,,
45801,9.31144636709387,,1.2976573705673218,1.6879122257232666
45840,,9.907206535339355,,
45841,2.9645687171716912,,-2.0374655723571777,1.0414776802062988
45880,8.336910802334053,1.357512354850769,-0.6631938815116882,-1.7980455160140991
46004,2.6481817341413323,7.261613845825195,-1.7597382068634033,-2.2194249629974365
46039,4.02303168463124,12.969390869140625,-2.1571757793426514,0.9217676520347595
46078,3.6871714041473598,10.04846477508545,,
46079,,,-2.454056739807129,2.5091233253479004
46118,6.950132398922255,11.233593940734863,,
46119,,,-8.178592681884766,-0.7422025203704834
46158,6.603451791413597,15.040374755859375,-0.5386953949928284,2.9735984802246094
46198,9.709494547235348,10.630255699157715,,
46199,,,-4.5609540939331055,-9.96945571899414
46237,,11.63342571258545,,
46238,3.668298416029286,,0.3734954595565796,1.0438719987869263
46277,,13.254301071166992,,
46278,8.839782471893221,,1.259350061416626,-8.209717750549316
46318,1.3881327122968277,10.010157585144043,-1.6208745241165161,-2.22660756111145
46357,,6.950367450714111,,
46358,3.5368245103315945,,-4.165910720825195,-0.8188169598579407
46397,,5.578489780426025,,
46398,4.27078304106091,,-0.10534487664699554,-1.3886369466781616
46437,4.560554821326053,5.461174011230469,0.667982280254364,-1.482010841369629
46477,3.159295755933894,6.789956092834473,-1.1683704853057861,
46478,,,,-0.2322375625371933
46517,2.9396899561984795,7.252037048339844,-0.1628057211637497,0.014365210197865963
46557,2.5820290338965526,8.827422142028809,0.1364694982767105,1.0103530883789062
46597,,11.791443824768066,,
46598,2.481010221719346,,0.1867477297782898,-1.4532804489135742
46638,4.067835663753477,13.146561622619629,1.235408067703247,-0.8619126081466675
46677,,12.981361389160156,,
46678,6.448269326503733,,-2.4612393379211426,4.613626480102539
46718,13.977109451637233,17.50879669189453,-0.14844051003456116,-12.27267837524414
46757,4.28562759130076,7.208941459655762,,
46758,,,-1.867477297782898,2.2361843585968018
46796,4.10862626481596,9.404424667358398,,
46797,,,-1.05105459690094,-4.6255974769592285
46984,3.9158573261334246,9.971850395202637,3.4548330307006836,-1.656787633895874
47011,1.8837574214067687,9.96945571899414,-1.036689281463623,1.015141487121582
47051,3.9091928611912676,5.999869346618652,-1.3000515699386597,
47052,,,,-1.2713210582733154
47091,2.941676154044812,10.177751541137695,0.9648633003234863,2.296039342880249
47130,2.891566437698267,11.791443824768066,-2.5115175247192383,0.7996633648872375
47171,4.912241005318849,11.245565414428711,-4.534617900848389,3.0358476638793945
47210,,14.496891021728516,,
47211,5.095741678298962,,-1.0606313943862915,2.0901381969451904
47250,,11.231200218200684,,
47251,6.992794960955655,,-1.3862427473068237,-6.904877662658691
47290,3.019139588926268,12.507309913635254,-1.7836803197860718,0.7781155705451965
47330,7.212500042312066,14.566323280334473,-0.3016694188117981,-5.485116004943848
47369,1.0381903752842958,9.330204010009766,,
47370,,,-2.4133553504943848,0.0071826050989329815
47409,3.929764430239153,5.932831764221191,-2.5282769203186035,-0.2944868206977844
47449,,3.6296098232269287,,
47450,6.22224458433099,,-0.31364041566848755,-1.556231141090393
47490,5.0904867566787635,4.824316501617432,-0.15801730751991272,0.3734954595565796
47530,3.3732027990795723,6.718130111694336,,
47531,,,-1.6687586307525635,0.2944868206977844
47570,3.104028907808407,7.208941459655762,-0.706289529800415,1.0893617868423462
47609,,12.198457717895508,,
47610,3.0437894407376307,,0.035913024097681046,1.0199298858642578
47649,,12.500126838684082,,
47650,3.8600023508805936,,0.3926490843296051,-2.9017724990844727
47689,,14.470555305480957,,
47690,9.088207745178982,,3.337517261505127,6.344634532928467
47729,12.243564082823077,16.747440338134766,,
47730,,,-2.1547815799713135,-10.29746150970459
47769,2.4729472346185473,12.124237060546875,,
47770,,,0.7134721279144287,-0.8355764150619507
47808,,6.150704383850098,,
47809,8.412345859878263,,-5.540182590484619,-5.571307182312012
47848,,12.765883445739746,,
47849,3.9357834964924336,,1.1563993692398071,-3.004723072052002
47888,2.0500816096367127,8.403648376464844,,
47889,,,0.5841852426528931,-2.315192937850952
47928,4.888509762156781,5.341464042663574,1.7884687185287476,-0.5363011956214905
47967,,3.1699230670928955,,
47968,6.624319941326702,,0.26575639843940735,-1.7334020137786865
48008,1.4560225935430104,8.520963668823242,-1.3934253454208374,-0.7110779285430908
48047,,6.809109687805176,,
48048,3.3655867522181837,,-1.2832920551300049,0.43095630407333374
48087,,8.322244644165039,,
48088,1.79488601067611,,-0.6153098344802856,0.05746084079146385
48127,,11.956643104553223,,
48128,4.277832895119262,,-1.886630892753601,2.63362193107605
48167,,10.3549222946167,,
48168,3.6807314288906676,,-4.41969633102417,0.28969839215278625
48206,,13.663708686828613,,
48207,5.061200198745573,,0.05506663769483566,2.497152328491211
48246,,13.165715217590332,,
48247,9.136681173768391,,-2.2409727573394775,-9.040505409240723
48286,4.113721977887244,12.196063041687012,-4.639962673187256,-1.7764976024627686
48326,,14.628572463989258,,
48327,9.706165470067168,,1.6519991159439087,-8.53293514251709
48365,,10.429142951965332,,
48366,1.0321959001070558,,-2.0877439975738525,
48367,,,,-1.6089035272598267
48406,3.7514587108358857,8.202534675598145,-5.058948040008545,0.009576806798577309
48445,5.045594043974584,4.649539470672607,-0.7565677165985107,
48446,,,,-0.7086837291717529
48485,6.0258078259129695,3.8307228088378906,,
48486,,,0.3687070608139038,-1.0654197931289673
48525,,5.355829238891602,,
48526,4.6778330495855585,,-0.933738648891449,0.4620809257030487
48564,,6.732495307922363,,
48565,3.3183523338561995,,-0.47644615173339844,0.15083470940589905
48604,,8.99740982055664,,
48605,2.292142703002794,,-0.028730420395731926,0.8475474119186401
51009,6.330766592748106,4.039018154144287,,
51010,,,1.6352397203445435,-0.5793967843055725
51049,5.505267308646188,4.311957359313965,-0.15801730751991272,-0.7805097699165344
51089,1.5573705017480477,9.241618156433105,-1.5179238319396973,0.7398083209991455
51128,,5.250484466552734,,
51129,4.669562644655107,,-2.2888567447662354,0.768538773059845
51169,2.602434533401536,7.50582218170166,-0.17477671802043915,-0.08379705995321274
51208,,12.94066047668457,,
51209,4.35287264101327,,-0.5171475410461426,2.365471363067627
51248,,11.08754825592041,,
51249,4.2241752496690985,,-5.240907669067383,1.0271124839782715
51288,,13.390769958496094,,
51289,5.244325386642816,,-0.19871874153614044,3.313575267791748
51328,,12.746729850769043,,
51329,6.589101011232903,,-2.3918075561523438,-5.947196960449219
51368,,9.904812812805176,,
51369,1.3474699472108735,,-3.292027235031128,-0.9696516990661621
51408,10.416437334715113,15.533580780029297,2.164358377456665,-7.793126583099365
51447,,11.738770484924316,,
51448,2.3388337517182083,,-2.5234885215759277,-1.3862427473068237
51488,3.686578279807303,7.680599212646484,-5.2265424728393555,0.06703764945268631
51528,5.045360042552402,4.920084476470947,-0.5841852426528931,
51529,,,,-2.1763293743133545
51568,,4.410119533538818,,
51569,5.858694621956315,,1.2018892765045166,-0.8690952062606812
51608,4.559195589087582,5.43723201751709,-0.9313444495201111,0.4596867263317108
51646,4.155255191462584,5.738901615142822,-0.6320692300796509,
51647,,,,-0.014365210197865963
51686,2.1271034376767894,9.916783332824707,-0.3471592366695404,0.6727706789970398
51726,4.762595692872181,13.527239799499512,1.5394717454910278,-1.1875240802764893
51766,,11.188104629516602,,
51767,4.03439114048076,,2.4013843536376953,-2.3056161403656006
51806,7.506485741412899,12.902353286743164,-2.691082715988159,
51807,,,,5.796362400054932
51846,,17.580623626708984,,
51847,10.293391238957266,,-2.473210334777832,-7.299921035766602
51886,2.949187383421776,9.157821655273438,1.8938134908676147,0.5219359993934631
51926,,8.544905662536621,,
51927,6.97033262884829,,-3.7852327823638916,-6.847416877746582
51966,3.981717768187249,12.557587623596191,,
51967,,,2.319981336593628,-2.31758713722229
52006,,7.132327079772949,,
52007,3.2897730986202185,,0.7445967197418213,-3.0190882682800293
52046,6.0361188299920965,3.8067808151245117,0.8690952062606812,-1.235408067703247
52085,,4.20421838760376,,
52086,5.534599540028298,,-0.5626373887062073,-0.6320692300796509
52125,0.9334348918519493,10.06043529510498,-0.9313444495201111,-0.8451532125473022
61991,2.115079273514814,9.452308654785156,0.6344634294509888,-0.08858546614646912
62030,3.1633456701501057,12.49055004119873,0.4884171485900879,-1.3311761617660522
62069,,16.378734588623047,,
62070,8.424498989704912,,1.3192051649093628,3.380612850189209
62110,4.766415389758284,9.830592155456543,-3.646369218826294,2.456450939178467
62150,10.795104040269106,14.460978507995605,2.2242133617401123,-10.486603736877441
62189,,6.648698329925537,,
62190,4.2428881661958435,,-2.049436569213867,0.5147533416748047
62230,,14.302961349487305,,
62231,6.276013673163278,,-3.268085241317749,-3.7924153804779053
62270,3.7573495686786984,11.32457447052002,,
62271,,,3.35667085647583,-2.0015525817871094
62311,2.1574446091774178,8.08043098449707,1.3766659498214722,-1.436521053314209
62350,,4.503493309020996,,
62351,5.273502784607466,,0.1867477297782898,-0.6823474764823914
62390,6.00602165685224,3.713406801223755,,
62391,,,-0.31603461503982544,-1.0295066833496094
62430,2.7580883547355906,7.465120792388916,,
62431,,,-0.3734954595565796,0.17477671802043915
62469,3.7360327963359543,6.57926607131958,,
62470,,,-2.145204782485962,0.3878606855869293
62510,,9.715670585632324,,
62511,0.8362806453706212,,-0.47165772318840027,-0.4572925269603729
62550,3.5974359600207193,11.32457447052002,-1.6208745241165161,
62551,,,,2.2146365642547607
62589,6.5234009518998635,13.402741432189941,-6.045359134674072,
62590,,,,1.3000515699386597
62628,,13.546393394470215,,
62629,6.567810235277896,,2.1523873805999756,3.581725835800171
98006,,14.166491508483887,,
98007,5.382564987449404,,0.7015010714530945,1.9129672050476074
98047,10.868643470492161,9.191340446472168,-0.8690952062606812,-11.346121788024902
98086,,13.170503616333008,,
98087,4.401867574208604,,-4.185064792633057,-0.2322375625371933
98126,11.403435681272292,17.451335906982422,1.0127472877502441,-8.485051155090332
98166,1.3025303899693945,8.437167167663574,,
98167,,,-2.3942017555236816,-0.6943184733390808
98206,4.637782192641418,6.323086738586426,-4.900930881500244,-0.28730419278144836
98246,4.191026938874071,5.57370138168335,-0.5171475410461426,-0.6272808313369751
98285,,4.683058738708496,,
98286,5.60156692653678,,1.5394717454910278,-1.01753568649292
98326,4.638652960487753,5.518634796142578,0.20350714027881622,0.706289529800415
98366,3.5424413993042823,6.6846113204956055,-0.24181437492370605,0.7709329724311829
98406,0.4920572229570225,9.47146224975586,,
98407,,,-0.5315127968788147,-0.49320554733276367
98445,,13.82412052154541,,
98446,4.875553784338708,,1.8962076902389526,-0.3663128614425659
98485,,13.934253692626953,,
98486,5.9514244233827185,,2.7269957065582275,2.1164743900299072
98525,,10.764330863952637,,
98526,5.854847860468988,,-3.442862033843994,4.410119533538818
98565,11.282952769260332,17.470489501953125,1.137245774269104,-8.705317497253418
98605,3.2117007200068595,7.4770917892456055,-1.4437036514282227,0.6368576288223267
100985,3.981149123035176,10.663774490356445,,
100986,,,-2.1499931812286377,-3.758896589279175
100992,3.923388914645287,5.963956356048584,,
100993,,,-0.38546648621559143,-1.4963760375976562
101032,4.428911305934559,12.763489723205566,,
101033,,,0.6057330369949341,2.425326347351074
101072,4.696547867784342,12.112266540527344,,
101073,,,-3.9456443786621094,-0.2106897532939911
101092,6.74349181464974,13.077129364013672,-5.851428985595703,0.811634361743927
101112,7.002456778869928,14.992490768432617,-3.8115692138671875,2.5761611461639404
101131,,15.10023021697998,,
101132,7.093410130900105,,1.0127472877502441,3.912125587463379
101151,5.365563026030326,14.496891021728516,,
101152,,,1.400607943534851,-2.343923568725586
101171,,10.450690269470215,,
101172,6.834214347552396,,-1.3766659498214722,-7.268796443939209
101191,,8.061277389526367,,
101192,7.27880084714927,,-3.9671921730041504,-7.0772600173950195
101211,,9.677363395690918,,
101212,3.234638000705097,,-3.754108190536499,0.33518823981285095
101232,3.6173433142567823,13.084312438964844,-1.3958195447921753,0.1173158809542656
101251,8.312841422734543,15.902287483215332,-0.3280056416988373,-6.48828649520874
101271,5.813270435751264,12.38759994506836,0.9528923034667969,-5.7556610107421875
101291,2.1448528555882906,11.587936401367188,-0.14604631066322327,-1.7357962131500244
101311,1.5428364757384823,9.581595420837402,-2.3989901542663574,-0.8523358106613159
101332,3.431771516339112,7.484274387359619,-3.2297780513763428,-0.15322890877723694
101352,4.4085557464470435,5.655104637145996,-2.5474305152893066,-0.9145850539207458
101371,,5.018246650695801,,
101372,4.697201873917699,,-0.950498104095459,-1.7357962131500244
101391,,4.503493309020996,,
101392,5.26685932306021,,0.31603461503982544,-1.2617442607879639
101411,,4.477157115936279,,
101412,5.361223174633067,,0.5841852426528931,-0.6847416758537292
101431,,4.69024133682251,,
101432,5.351951685209827,,0.4118026793003082,0.31603461503982544
101451,4.611338672359285,5.480327606201172,,
101452,,,-0.33758243918418884,0.395043283700943
101471,,6.100425720214844,,
101472,4.086846740970316,,-0.7445967197418213,0.40222588181495667
101491,,6.562506675720215,,
101492,3.925598808338458,,-0.6751648783683777,0.9217676520347595
101511,2.956345190084299,7.467514991760254,,
101512,,,-0.9241618514060974,0.5171475410461426
101531,0.8510862295996104,10.122684478759766,,
101532,,,-0.6248866319656372,-0.5195417404174805
101551,3.479892464653435,12.722787857055664,,
101552,,,0.7230489253997803,0.21547815203666687
101571,3.2571240619365716,12.11705493927002,1.7956513166427612,-0.9193734526634216
101591,4.54678103425242,12.24155330657959,2.5306711196899414,
101592,,,,-3.4308910369873047
101611,6.739483588383159,13.955801963806152,3.6511576175689697,
101612,,,,2.583343744277954
101631,7.819308556625128,13.962984085083008,0.4908113479614258,
101632,,,,5.681440830230713
101651,4.879824867232766,11.97100830078125,-3.974374771118164,0.9457096457481384
101671,7.207513957412019,15.31570816040039,-2.494758129119873,-4.637568473815918
101691,9.992418085201056,17.334020614624023,1.036689281463623,-7.333439826965332
101710,,12.734758377075195,,
101711,3.5930324999185843,,2.315192937850952,-1.01753568649292
101731,4.596263379577302,6.169857978820801,-1.580173134803772,0.7876923680305481
101750,,7.673416614532471,,
101751,7.884149232006509,,-4.754884719848633,-6.50025749206543
101770,,13.292608261108398,,
101771,5.4557504536677,,-0.2777273952960968,-5.006275653839111
101790,5.743825167723426,15.109807014465332,,
101791,,,1.6304513216018677,-2.7078421115875244
101810,,11.293449401855469,,
101811,1.8174476181520507,,1.1276689767837524,-1.7501614093780518
101828,,8.341399192810059,,
101829,2.2752210824040633,,0.8858546018600464,-2.911349296569824
101849,,7.0341644287109375,,
101850,2.929123806447678,,1.2952631711959839,-1.7262194156646729
101869,,5.2696380615234375,,
101870,4.636250395930385,,1.1659762859344482,-0.49799394607543945
101889,6.236482268882666,3.536235809326172,0.7182605266571045,-1.235408067703247
101910,5.8024191448161435,3.93367338180542,0.2849099934101105,-1.4724340438842773
101929,,5.5114521980285645,,
101930,4.246400318466554,,-0.40222588181495667,-0.7182605266571045
101950,,7.359776020050049,,
101951,2.89577787789869,,-1.0127472877502441,0.12210428714752197
101969,,7.999027729034424,,
101970,3.1664818826937466,,-1.556231141090393,0.9528923034667969
101989,3.7329596866093513,7.613561630249023,-2.056619167327881,1.292868971824646
102008,,6.287173748016357,,
102009,4.035532487905097,,-2.209848165512085,0.1867477297782898
102029,3.362387083064992,6.466738700866699,-1.2761094570159912,-0.4908113479614258
102049,,9.373299598693848,,
102050,1.5968270610026134,,-0.17238251864910126,0.3902548849582672
102068,,11.659762382507324,,
102069,3.483974006056579,,-0.1149216815829277,1.8602946996688843
102088,,11.276689529418945,,
102089,4.257241755038096,,-0.29209262132644653,3.1004912853240967
102108,2.4606284295625747,11.283872604370117,-2.03507137298584,
102109,,,,0.689530074596405
102128,,12.404358863830566,,
102129,4.8621245329963765,,-4.850652694702148,-0.36152446269989014
102148,6.786082150232712,14.350845336914062,-4.738125324249268,2.5498247146606445
102168,5.619463421059434,14.386757850646973,-0.19871874153614044,
102169,,,,2.4396915435791016
102187,,14.748282432556152,,
102188,5.999570513294609,,2.094926595687866,0.5099649429321289
102207,,12.627019882202148,,
102208,5.69146724293845,,-0.5650315880775452,-5.485116004943848
102228,5.713960236408016,10.488997459411621,-3.711012601852417,-5.78678560256958
102247,,9.44991397857666,,
102248,5.197118459608471,,-5.066130638122559,
102249,,,,-4.558559894561768
102267,,11.034875869750977,,
102268,1.6176003928771707,,-1.7166426181793213,-0.22744916379451752
102287,,14.951789855957031,,
102288,7.588519268923564,,0.8475474119186401,-5.803544998168945
102307,5.872155332750754,13.37161636352539,,
102308,,,1.6855180263519287,-4.1395745277404785
102327,,10.66137981414795,,
102328,2.180591245495506,,-0.22744916379451752,-2.518700122833252
102347,1.1001343905110224,9.409213066101074,,
102348,,,-2.3726539611816406,-1.5131354331970215
102367,2.844497750034472,7.970297336578369,,
102368,,,-3.581725835800171,-0.6536170840263367
102387,3.74063033356123,6.631938934326172,-3.3638534545898438,
102388,,,,-0.49559974670410156
102407,4.283841427800525,5.451597213745117,-1.8770540952682495,-0.9552865028381348
102427,5.229631968107372,4.563348293304443,0.07900865375995636,-1.3838485479354858
102447,5.634086729303644,4.388571739196777,1.1085153818130493,
102448,,,,-1.2042834758758545
102467,4.696733459654704,5.367800235748291,0.7852981686592102,-0.1364694982767105
102487,4.039378170464895,6.172252178192139,-0.40462008118629456,0.6248866319656372
102507,3.4464068069730813,6.833051681518555,-1.3215993642807007,
102508,,,,0.3926490843296051
102527,3.4391252316997654,6.493074893951416,-0.7733271718025208,-0.038307227194309235
102546,,6.54574728012085,,
102547,3.6502253789427352,,0.38546648621559143,0.48602294921875
102566,,6.799532890319824,,
102567,4.077545475615556,,0.35434186458587646,1.7357962131500244
102586,2.144071491480028,10.08437728881836,,
102587,,,-0.14844051003456116,1.1971008777618408
102605,,13.168108940124512,,
102606,4.102700502469546,,0.35434186458587646,1.278503656387329
102626,,13.350069046020508,,
102627,4.170376283422986,,1.2713210582733154,-1.8746598958969116
102646,,13.383587837219238,,
102647,5.501360118191174,,2.5043349266052246,-3.5721490383148193
102665,,14.5591402053833,,
102666,7.586706843389895,,3.4093432426452637,3.780444383621216
102685,,13.883975982666016,,
102686,7.65900679800168,,0.035913024097681046,
102687,,,,5.796362400054932
102705,6.122487389710019,14.135366439819336,,
102706,,,-2.1930887699127197,-4.4292731285095215
102725,10.203182950519771,18.033126831054688,-0.667982280254364,-6.567295074462891
102745,8.64687724111712,16.852785110473633,0.6392518281936646,-5.779603004455566
102765,4.97720749536367,8.619126319885254,,
102766,,,-1.3527239561080933,3.5386300086975098
102785,,5.832275390625,,
102786,6.898047085144258,,-4.015076160430908,-4.331110954284668
102805,7.429519603288259,7.666234016418457,-2.1164743900299072,-7.24485445022583
102825,3.7669369007048155,12.349292755126953,2.3918075561523438,-2.3798365592956543
102845,3.1581108726186993,12.006921768188477,2.341529369354248,
102846,,,,-1.2521674633026123
102866,1.6887816754129863,9.466673851013184,,
102867,,,0.20350714027881622,-2.5450363159179688
102884,,8.734047889709473,,
102885,1.6003320200466518,,-0.18914192914962769,-2.2170307636260986
102904,2.7343359372209783,7.374141216278076,,
102905,,,0.5434837937355042,0.11971008777618408
102924,5.241388979269411,4.72376012802124,1.0055646896362305,-0.24899697303771973
102944,,2.87064790725708,,
102945,6.983604030172683,,0.6105214357376099,-1.623268723487854
102964,5.884811649338776,3.8810009956359863,-0.014365210197865963,-1.2665326595306396
102983,,6.596025466918945,,
102984,3.138086156310287,,-0.6919242739677429,-0.8619126081466675
103003,,8.506598472595215,,
103004,1.8801595271178744,,-1.3718775510787964,0.1149216815829277
103024,2.9203230872454724,7.9631147384643555,,
103025,,,-2.099714994430542,0.7661445140838623
103044,3.9571077691500243,5.942408561706543,-1.920149803161621,-0.5530605912208557
103063,,5.772420406341553,,
103064,3.9879847312642602,,-0.646434485912323,-1.5514427423477173
103083,2.253298460993391,8.267178535461426,0.7565677165985107,-0.4405331015586853
103103,4.271339919896766,12.143390655517578,0.6320692300796509,
103104,,,,2.2385785579681396
103123,5.088163530348869,12.806585311889648,0.24660277366638184,
103124,,,,3.021482467651367
103143,3.4097939350142927,12.023680686950684,-1.0199298858642578,1.723825216293335
103163,2.77121346717606,11.714828491210938,,
103164,,,-2.6384103298187256,-0.3902548849582672
103183,5.798230776112368,12.911930084228516,-4.857835292816162,2.0614075660705566
103202,,13.886369705200195,,
103203,6.387683891142709,,-3.5218706130981445,3.5051112174987793
103223,,15.119383811950684,,
103224,5.601495080007449,,-1.5682021379470825,0.9289502501487732
103242,6.962678873445663,13.804966926574707,,
103243,,,-2.231395959854126,-6.01423454284668
103262,,10.642226219177246,,
103263,5.669141378634622,,-3.4380736351013184,-5.719748020172119
103283,2.0103605852227573,9.861717224121094,-2.5953147411346436,-2.293645143508911
103302,2.114439021355432,10.163386344909668,0.5003881454467773,
103303,,,,-0.5482721924781799
103322,9.766813208963764,13.42668342590332,1.161187767982483,-9.174580574035645
103342,4.603933659291819,12.411541938781738,-0.1364694982767105,-4.127603530883789
103362,,11.796232223510742,,
103363,2.216630917693484,,-1.6903064250946045,-0.42616790533065796
103382,2.1087218226985045,11.322179794311523,,
103383,,,-2.535459518432617,-1.7477672100067139
103401,,9.105149269104004,,
103402,1.4521128092783844,,-2.786850690841675,
103403,,,,-1.2713210582733154
103421,,6.593631267547607,,
103422,3.290629758768001,,-2.5115175247192383,-0.6775590777397156
103441,,5.0014872550964355,,
103443,4.694551783932772,,-1.6519991159439087,-0.8595184087753296
103461,,4.443638324737549,,
103462,5.257189414754098,,,
103463,,,-0.7254431247711182,-0.9720458984375
103481,5.3063518177414,4.446032524108887,-0.2968810200691223,
103482,,,,-0.6919242739677429
103501,4.897765775190056,4.9799394607543945,-0.016759412363171577,-0.12689268589019775
103521,,5.353435039520264,,
103522,4.6075680051805294,,-0.21787235140800476,0.22744916379451752
103541,3.730309352165582,6.1530985832214355,-0.5817909836769104,-0.09576806426048279
103561,3.6415211634661917,6.18182897567749,,
103562,,,-0.24660277366638184,-0.3495534360408783
103581,3.779442725706335,6.375759124755859,0.4884171485900879,0.3280056416988373
103600,,8.003816604614258,,
103601,3.574082001952004,,0.993593692779541,1.7501614093780518
103620,,11.05402946472168,,
103621,3.4919881401079094,,1.37906014919281,1.6903064250946045
103640,,12.574347496032715,,
103641,3.8086601055918283,,1.6759412288665771,0.33758243918418884
103660,,13.725957870483398,,
103661,4.4467569428010805,,1.3910311460494995,-1.1228805780410767
103680,6.32058319153411,15.76821231842041,,
103681,,,1.2449848651885986,-1.6352397203445435
103700,,16.859968185424805,,
103701,8.924496026863148,,1.070208191871643,4.422090530395508
103720,7.73003917886495,12.90714168548584,-2.0254945755004883,6.095637321472168
103740,3.7436953634564385,10.876858711242676,-3.6966474056243896,-1.335964560508728
103760,7.173400051889157,14.719552040100098,-1.1348515748977661,-5.655104637145996
103779,,15.51921558380127,,
103780,10.771224958628197,,1.8914192914962769,-9.612719535827637
103799,,11.008539199829102,,
103800,2.5171320411260467,,2.145204782485962,-1.577778935432434
103819,,6.8378400802612305,,
103820,4.394604383072021,,-3.050212860107422,-1.2282254695892334
103839,,9.500192642211914,,
103840,4.862630164750413,,-3.404554843902588,-4.031835556030273
103859,,11.652579307556152,,
103860,2.441403124998,,0.05027823522686958,-2.293645143508911
103879,1.9531809074029618,10.613495826721191,,
103880,,,1.280897855758667,-2.0925323963165283
103899,2.1875723690596036,8.257601737976074,,
103900,,,0.6799532771110535,-2.2146365642547607
103919,2.4273494743719213,7.7763671875,,
103920,,,0.44771572947502136,-2.123656988143921
103939,3.1554729147135334,6.734889507293701,0.7613561153411865,-1.0127472877502441
103959,4.7056930475866645,5.351040840148926,1.4077905416488647,-0.8786720037460327
103979,5.577766983980945,4.469974517822266,1.3670891523361206,-1.4844050407409668
103998,,4.963180065155029,,
103999,4.835279774347687,,0.3064578175544739,-1.0630255937576294
104019,2.827854881243045,7.01979923248291,-0.8954314589500427,-0.3687070608139038
104039,1.924235375379387,8.83699893951416,-1.723825216293335,0.24660277366638184
104058,,8.465897560119629,,
104059,2.6053280084621298,,-2.032677173614502,0.8379706144332886
104078,4.709989183417533,5.377377033233643,,
104079,,,-1.9823989868164062,0.4644751250743866
104098,,4.019864559173584,,
104099,5.7351396347114925,,-1.4532804489135742,-0.7182605266571045
104118,2.5607680073218266,7.237671852111816,,
104119,,,-1.1540051698684692,-0.17717093229293823
104138,,12.516886711120605,,
104139,4.183909000946154,,-1.0534487962722778,2.3942017555236816
104158,,13.30457878112793,,
104159,5.427751242552056,,-0.8355764150619507,3.359065055847168
104177,,12.217611312866211,,
104178,4.262355124061495,,-2.2625205516815186,2.5306711196899414
104198,,11.441889762878418,,
104199,4.812015261327019,,-5.260061264038086,0.5171475410461426
104217,6.581329362613546,13.211204528808594,,
104218,,,-5.722142219543457,2.477998733520508
104237,,14.068328857421875,,
104238,5.627353769145426,,-2.0398597717285156,2.983175277709961
104257,5.929848971574537,13.457807540893555,1.7693150043487549,3.114856481552124
104277,,11.906365394592285,,
104278,7.158981401671096,,1.292868971824646,-6.710947513580322
104297,,9.279925346374512,,
104298,9.684649435698889,,-1.534683346748352,
104299,,,,-10.134655952453613
104317,5.510089290054654,7.951143741607666,-5.190629482269287,-4.371812343597412
104338,4.34293978153565,13.297396659851074,-3.1052796840667725,0.8858546018600464
104356,,17.446548461914062,,
104357,8.594637294392822,,-0.5770025849342346,-4.189853191375732
104376,,16.057910919189453,,
104377,10.211038742205623,,1.580173134803772,-7.893682956695557
104396,3.421929206592983,10.445901870727539,0.9576807022094727,-2.52109432220459
104416,,8.604761123657227,,
104417,1.026642650802259,,-1.580173134803772,-0.8068459630012512
104436,3.5921857000066852,6.971915245056152,-3.3518824577331543,0.828393816947937
104456,3.8881305833245103,6.457161903381348,-3.600879430770874,-0.24660277366638184
104476,4.302879992500186,5.408501625061035,-1.8267759084701538,-1.2880805730819702
104514,,4.9368438720703125,,
104515,5.253886101552909,,1.2186486721038818,-0.8619126081466675
104554,5.076498199459565,5.214571475982666,,
104555,,,0.8571242094039917,0.7326257228851318
104713,5.044161134812713,14.322114944458008,1.4484920501708984,-1.6927006244659424
104753,,12.550405502319336,,
104754,8.289524996669602,,0.5482721924781799,6.8162922859191895
104793,12.189429184251846,17.283742904663086,0.5626373887062073,-10.527304649353027
104832,2.2274415539610137,8.432378768920898,,
104833,,,-1.3072341680526733,-0.29209262132644653
104872,,11.616666793823242,,
104873,4.038455172243794,,-1.889025092124939,-3.7708675861358643
104912,2.3677592075004945,9.169792175292969,,
104913,,,1.7525556087493896,-2.782062292098999
104952,,8.056488990783691,,
104953,1.9691725383428313,,0.7493851184844971,-1.9273324012756348
104992,5.3011916134566395,4.606443881988525,1.1276689767837524,-0.7374141216278076
105033,5.336144997624122,4.417302131652832,-0.6368576288223267,
105034,,,,-0.7182605266571045
105072,,8.520963668823242,,
105073,2.093418835313169,,-1.9536685943603516,-0.06703764945268631
105112,,5.870582580566406,,
105113,3.9513477054379837,,-0.9217676520347595,-0.2082955539226532
105152,,10.60391902923584,,
105153,3.5009598097141015,,-0.1604115068912506,2.4612393379211426
105192,2.747524794795555,11.475408554077148,-2.0661959648132324,
105193,,,,0.933738648891449
105232,5.700826605038333,13.084312438964844,,
105233,,,-4.467580318450928,2.3247697353363037
105272,,14.463372230529785,,
105273,6.1908384622342165,,0.3663128614425659,3.3710360527038574
105311,,10.196905136108398,,
105312,9.683729656292163,,-2.22660756111145,-10.168174743652344
105351,,13.165715217590332,,
105352,4.143617175060581,,-3.4763808250427246,-0.22266076505184174
105390,,16.1656494140625,,
105391,10.40798889844509,,0.9074024558067322,-8.540117263793945
105431,,9.141061782836914,,
105432,1.103255357685647,,-2.1308395862579346,-1.6950948238372803
105469,,6.777985095977783,,
105470,3.5646565920096034,,-3.354276657104492,-0.21547815203666687
105509,4.631978517960195,5.240907669067383,0.2322375625371933,-0.8092401623725891
105548,,4.692635536193848,,
105549,5.248941768986761,,0.9026140570640564,-0.9457096457481384
105588,,5.7772088050842285,,
105589,4.659841905785438,,-1.072602391242981,1.194706678390503
105628,3.9191835446527947,6.4595561027526855,-1.3311761617660522,0.9888052940368652
105668,1.4738693300296173,8.470685958862305,-1.216254472732544,-0.9792284965515137
105688,3.6735407520680226,12.36605167388916,-0.5913678407669067,1.9488801956176758
105708,,13.388376235961914,,
105709,3.8482659336122786,,0.45010992884635925,0.14844051003456116
105728,5.713702199298247,13.939042091369629,2.676717519760132,-2.784456491470337
105748,7.920507309204143,14.633360862731934,4.594472885131836,3.35667085647583
105768,8.751433772737657,14.535198211669922,0.8595184087753296,
105769,,,,6.775590896606445
105788,4.705307159613344,12.90714168548584,-3.5003228187561035,-1.0558429956436157
105808,10.278316183565085,16.627731323242188,-1.7764976024627686,-7.819462776184082
105828,,17.159242630004883,,
105829,13.20413792804557,,3.043030261993408,
105830,,,,-11.025299072265625
105849,4.16922793186599,10.584765434265137,3.5673606395721436,1.8746598958969116
105868,6.1229621455461425,5.080495834350586,-2.5977089405059814,1.5155296325683594
105889,7.538180253187172,8.413225173950195,-5.082890033721924,-5.288791656494141
105908,6.193920157026654,13.292608261108398,-1.644816517829895,
105909,,,,-5.154716491699219
105928,,13.172897338867188,,
105929,4.071808933474489,,0.3734954595565796,-2.8874073028564453
105948,,9.974244117736816,,
105949,0.8618629507836688,,0.9074024558067322,-1.194706678390503
105969,1.8807592315792072,8.432378768920898,,
105970,,,1.0582371950149536,-1.8100165128707886
105988,2.71327772461552,7.350199222564697,,
105989,,,1.256955862045288,-0.993593692779541
106008,4.930757578739089,4.970362663269043,0.9840168952941895,-0.5410895943641663
106029,5.960684394712501,3.912125587463379,0.7206547260284424,-1.6400281190872192
106048,5.306139200983597,4.460397720336914,0.1173158809542656,-1.0893617868423462
106068,3.8737840282795717,5.872976779937744,-0.49799394607543945,
106069,,,,-0.7469909191131592
106088,2.760073504920381,7.232883453369141,-0.7445967197418213,0.009576806798577309
106108,3.2961472706994086,7.259219646453857,-0.5602431893348694,0.9792284965515137
106128,4.315226922814806,5.904101371765137,-0.5722141861915588,0.8523358106613159
106148,4.873706548222664,4.90571928024292,-0.3974374830722809,-0.3974374830722809
106168,2.2448560406039157,7.548917770385742,-0.23702596127986908,-1.0582371950149536
106187,3.352717274019215,13.002909660339355,,
106188,,,-0.10295066982507706,-0.8188169598579407
106207,,13.637372970581055,,
106208,5.200062259888228,,0.07422025501728058,2.3271639347076416
106227,4.265945143091644,11.1474027633667,,
106228,,,-1.9704279899597168,2.8874073028564453
106247,6.3246735379249515,9.533711433410645,,
106248,,,-6.780379295349121,0.8212111592292786
106267,8.225046509028601,12.780248641967773,,
106268,,,-7.9415669441223145,2.145204782485962
106286,7.357624858246545,15.751453399658203,-1.5705963373184204,3.598485231399536
106305,8.082795377573445,16.938976287841797,2.5737667083740234,-0.43335050344467163
106325,7.477991236675195,12.461819648742676,-0.040701430290937424,-7.457938194274902
106345,7.18957171229622,10.38604736328125,-5.657498836517334,-6.536170482635498
106365,5.039572519913934,12.435483932495117,-5.602431774139404,-2.4013843536376953
106385,,12.629413604736328,,
106386,4.359642102662289,,0.5267243981361389,-2.911349296569824
106405,10.418658948476429,14.326903343200684,,
106406,,,2.779668092727661,-8.925583839416504
106428,5.092509861797509,11.985373497009277,1.8411411046981812,-3.533841609954834
106445,,11.640608787536621,,
106446,2.704370817953058,,-0.9145850539207458,-2.6623523235321045
106465,1.44824745552818,10.94150161743164,,
106466,,,-2.013523578643799,-1.6376339197158813
106485,,8.47547435760498,,
106486,1.7370761766085747,,-2.983175277709961,-1.0079588890075684
106504,,6.009446144104004,,
106505,3.9291011304571146,,-3.205836057662964,-1.3287819623947144
106526,4.878398004452255,4.800374507904053,-1.9321208000183105,-0.6488286852836609
106545,5.977998129759183,3.869029998779297,-0.2992752194404602,-0.06703764945268631
106566,6.494742688257166,3.40216064453125,0.31124621629714966,-0.26815059781074524
106585,5.949083132585071,3.9001545906066895,-0.08379705995321274,-0.16519992053508759
106604,,5.037400245666504,,
106605,4.744051571634846,,-0.9911994934082031,-0.3974374830722809
106625,3.369794999857477,6.514622688293457,-0.9145850539207458,-0.24660277366638184
106645,3.014149359148105,7.580042362213135,0.12210428714752197,0.5817909836769104
106665,3.609179338708788,8.549694061279297,0.7709329724311829,1.7573440074920654
106684,,9.217676162719727,,
106685,2.7447551650069846,,0.38067805767059326,1.2713210582733154
106705,2.1303734999019475,10.417171478271484,-0.6584054827690125,0.9600749015808105
106725,,11.480196952819824,,
106726,2.0683347071976854,,-0.6272808313369751,0.1604115068912506
106744,3.059868596814731,12.382811546325684,0.3974374830722809,
106745,,,,-1.721431016921997
106764,5.515799803300767,14.049175262451172,,
106765,,,2.5234885215759277,-1.7166426181793213
106784,8.537617637080745,15.344438552856445,,
106785,,,3.892971992492676,3.778050184249878
106804,,14.405911445617676,,
106805,5.621637653389434,,0.31364041566848755,2.2816741466522217
106824,9.766995216372363,15.46175479888916,-2.8155810832977295,-8.29590892791748
106844,12.965395132708668,18.739416122436523,-0.545877993106842,-10.14902114868164
106864,3.8854529385071075,13.421895027160645,0.8212111592292786,-0.0071826050989329815
106884,6.015085964080101,5.789179801940918,-3.3925838470458984,1.8818424940109253
106903,,4.034229755401611,,
106904,9.702818345093895,,-5.403713226318359,-6.114790916442871
106923,5.490352492281525,9.083600997924805,,
106924,,,-1.3862427473068237,-5.779603004455566
106943,,13.26866626739502,,
106944,4.080638359469798,,1.802833914756775,-2.0159177780151367
106963,2.2588879620926012,11.276689529418945,1.7405846118927002,
106964,,,,-0.5171475410461426
106983,1.7823777894957946,9.39245319366455,,
106984,,,1.0438719987869263,-2.389413356781006
107003,2.3049830360367594,7.8529815673828125,1.2545616626739502,-1.1540051698684692
107023,3.7027971468628187,6.270414352416992,0.8810662031173706,-0.28969839215278625
107043,5.630680691374514,4.132391929626465,-0.3974374830722809,
107044,,,,-0.7876923680305481
107063,5.4708382243560445,4.405331134796143,-1.213860273361206,-1.721431016921997
107083,3.699967724427363,6.090848922729492,,
107084,,,-1.1276689767837524,-1.1276689767837524
107102,,8.003816604614258,,
107103,1.862022694610227,,-0.5171475410461426,
107104,,,,-0.35913026332855225
107122,,8.75080680847168,,
107123,1.8925129945175343,,-0.07900865375995636,
107124,,,,0.4213795065879822
107143,2.7080525374957927,7.740454196929932,,
107144,,,-0.16998831927776337,0.7110779285430908
107162,,7.058106422424316,,
107163,2.7265390651974624,,-0.5722141861915588,-0.44532153010368347
107182,,7.757213592529297,,
107183,2.070517590998688,,-0.5506663918495178,-0.2968810200691223
107202,,10.51054573059082,,
107203,2.5302362177948083,,-0.35673606395721436,1.6041151285171509
107222,,11.820174217224121,,
107223,3.3855645876137554,,-0.4836287498474121,1.9823989868164062
107242,,10.855310440063477,,
107243,2.9168144915222327,,-1.7860745191574097,1.8722656965255737
107262,3.311946894694474,10.647014617919922,,
107263,,,-3.869029998779297,-0.7996633648872375
107282,4.849361983344594,11.535264015197754,-5.30076265335083,-0.10295066982507706
107301,5.300108336295103,13.467384338378906,-4.537012100219727,
107302,,,,0.730231523513794
107321,,15.945383071899414,,
107322,6.952463319991002,,-2.7892448902130127,
107323,,,,-3.045424461364746
107342,,16.27338981628418,,
107343,7.580988706660089,,-1.965639591217041,-4.271255970001221
107361,,13.51766300201416,,
107362,4.344620871206873,,-0.38067805767059326,-2.2673089504241943
107381,,9.141061782836914,,
107382,4.285573961594626,,1.86508309841156,-2.806004285812378
107401,,7.481880187988281,,
107402,9.82072385959736,,5.420472621917725,-6.648698329925537
107421,8.08450130663315,7.920019149780273,4.268861770629883,-5.513846397399902
107441,3.4624631804013117,8.939949035644531,,
107442,,,-4.177882194519043,1.4939818382263184
107461,8.61767443943786,14.312538146972656,-8.695740699768066,-1.194706678390503
107481,6.529848669381208,14.733917236328125,-5.631162166595459,-0.9624691009521484
107500,,11.504138946533203,,
107501,2.1743174479456577,,-2.298433542251587,-0.24181437492370605
107520,,6.988674640655518,,
107521,2.8723691430095433,,-0.42856210470199585,-1.1468225717544556
107540,,4.137180328369141,,
107541,6.126221204190703,,0.9265560507774353,-2.2146365642547607
107560,6.813015979510142,3.4739866256713867,,
107561,,,1.5921441316604614,-1.213860273361206
107580,5.315234389353825,4.838681697845459,1.0031704902648926,-0.23702596127986908
107600,3.4389368002215406,6.62236213684082,-0.3711012601852417,
107601,,,,0.2777273952960968
107620,,8.238448143005371,,
107621,1.8322274889901453,,-0.9864110946655273,-0.17956513166427612
107639,,8.49941635131836,,
107640,2.318959981865029,,-0.3663128614425659,0.689530074596405
107659,,8.607154846191406,,
107660,3.005809880196795,,0.16759411990642548,1.4724340438842773
107680,3.0353615788313597,8.978256225585938,-0.3974374830722809,1.8531121015548706
107699,,8.164227485656738,,
107700,2.5938827296846796,,-1.1755530834197998,1.070208191871643
107719,,7.467514991760254,,
107720,2.7437836873065433,,-1.0845733880996704,0.7374141216278076
107739,2.907026945878297,7.781155586242676,,
107740,,,-0.9145850539207458,
107741,,,,1.6184803247451782
107759,2.6994275510547703,10.90558910369873,-0.7829039692878723,2.1380221843719482
107779,4.495019063431793,13.529633522033691,0.0454898327589035,2.190694570541382
107799,6.207541327767178,14.334085464477539,1.867477297782898,3.359065055847168
107819,6.178770129838366,14.45858383178711,2.4013843536376953,2.8155810832977295
107839,7.606031744779132,16.69476890563965,2.2601263523101807,-1.9967641830444336
107859,9.197498926949134,18.083404541015625,0.6177040338516235,-4.010287761688232
107879,6.116671134815438,15.85679817199707,-0.569819986820221,-1.0055646896362305
107899,1.4268333420288766,10.053253173828125,-1.482010841369629,-0.18914192914962769
107918,,3.1004912853240967,,
107919,7.739884450675892,,-3.7684733867645264,-1.0223240852355957
107939,10.606490944062715,2.652775526046753,-4.78122091293335,-6.232107162475586
107959,,9.29189682006836,,
107960,4.960504371778794,,-1.968033790588379,-4.616020679473877
107977,4.9729903259490085,14.767436027526855,-0.1149216815829277,-0.23702596127986908
107997,4.599016971869526,14.106636047363281,-0.2561795711517334,1.0534487962722778
108016,,11.003750801086426,,
108017,1.2974319181422798,,-0.22266076505184174,-0.19153612852096558
108037,2.7056821513688263,7.405265808105469,0.768538773059845,
108038,,,,-0.15562310814857483
108056,,3.914519786834717,,
108057,6.1230163476113,,1.137245774269104,-0.8427590131759644
108077,7.275895798317122,2.719813108444214,,
108078,,,0.5602431893348694,-1.7166426181793213
108097,5.628025343381733,4.194641590118408,-0.15083470940589905,-1.0606313943862915
108117,3.6764584767759203,6.0836663246154785,-0.8571242094039917,-0.33997663855552673
108137,2.4378521982693475,7.527369976043701,-1.2856862545013428,0.19871874153614044
108156,,7.208941459655762,,
108157,2.975506452519775,,-1.8195933103561401,0.5123591423034668
108177,3.2547976954536018,6.53377628326416,-1.5538369417190552,-0.31124621629714966
108197,3.3541141924495075,6.538564682006836,-0.5410895943641663,-0.009576806798577309
108216,,7.682993412017822,,
108217,2.9484833261459267,,-0.28730419278144836,0.9576807022094727
108237,2.3464737387845234,11.185709953308105,-0.811634361743927,0.7038952708244324
108257,3.4460204904293565,12.495338439941406,-0.7254431247711182,0.8643068075180054
108276,,12.325350761413574,,
108277,4.6677803799597415,,-1.237802267074585,2.765302896499634
108296,,10.685321807861328,,
108297,4.391287865609853,,-5.032611846923828,0.5291185975074768
108316,6.812979865015989,11.549629211425781,-7.4770917892456055,
108317,,,,0.7637503147125244
108336,,14.044386863708496,,
108337,5.588818981996589,,-3.584120035171509,1.7812861204147339
108356,7.685125216752683,14.176068305969238,1.0893617868423462,
108357,,,,4.946420669555664
108376,5.910838126250484,13.170503616333008,-1.2114660739898682,-5.475539207458496
108396,,9.99100399017334,,
108397,7.285765201593715,,-4.000710964202881,-7.532158374786377
108416,5.417829339861064,11.401188850402832,-5.130774021148682,-4.709394931793213
108435,,13.046005249023438,,
108436,3.7294606069869385,,-2.7533318996429443,0.22505496442317963
108456,9.814402013237556,16.11058235168457,,
108457,,,-0.6703764796257019,-7.948749542236328
108475,6.888531494440767,14.269442558288574,0.08858546614646912,-5.219359874725342
108496,4.4330017501239,12.536040306091309,-0.24660277366638184,-3.4763808250427246
108515,2.669723268948239,10.721235275268555,-1.5753847360610962,-3.1723172664642334
108535,,8.916007041931152,,
108536,1.267150054265486,,-1.501164436340332,-1.8770540952682495
108555,3.6209554800158528,6.653486728668213,,
108556,,,0.2753331959247589,-1.5298948287963867
108575,5.712271601078018,4.898536682128906,1.6663644313812256,
108576,,,,-0.8954314589500427
108595,6.016371009445064,4.395754337310791,1.0869675874710083,-2.7748796939849854
108614,,4.376600742340088,,
108615,5.431452226989332,,-1.0773907899856567,-2.425326347351074
108635,4.842714654343024,5.4013190269470215,-2.7724854946136475,
108636,,,,0.1364694982767105
108654,,6.653486728668213,,
108655,4.8652543688117875,,-3.3518824577331543,1.6519991159439087
108674,,7.036558628082275,,
108675,4.514213579025759,,-4.2329487800598145,0.3280056416988373
108694,,6.402095317840576,,
108695,4.642314770217682,,-3.955221176147461,0.31364041566848755
108715,4.102250918789343,6.174646377563477,-2.561795711517334,0.4908113479614258
108734,2.9632964789806078,8.070854187011719,-0.9911994934082031,
108735,,,,1.5131354331970215
108754,,10.26394271850586,,
108755,4.495906663543509,,0.8906430602073669,3.093308687210083
108774,3.6329329932134327,9.488221168518066,0.5506663918495178,
108775,,,,2.492363929748535
108793,,9.914389610290527,,
108795,1.1056976620532373,,-1.4101848602294922,-1.5969325304031372
108813,,11.793837547302246,,
108814,3.3915655703712173,,1.259350061416626,-1.2090718746185303
108834,9.039882032586815,14.879963874816895,5.384559631347656,2.978386878967285
108853,,15.753847122192383,,
108854,8.735319629011641,,,
108855,,,3.8786067962646484,3.5434184074401855
108873,,17.25979995727539,,
108874,10.929343359262186,,-1.1228805780410767,-8.559270858764648
108893,11.645960134362983,18.21987533569336,-2.0877439975738525,
108894,,,,-8.564059257507324
108913,3.9321240252534744,12.660538673400879,-1.7764976024627686,-3.1531636714935303
108934,6.7360458248509705,5.370194435119629,-3.533841609954834,2.8826189041137695
108953,7.4909873215916,5.595249176025391,,
108954,,,-5.710171222686768,-3.1651346683502197
108973,5.846189265201781,10.180145263671875,-2.557007312774658,-5.863399982452393
108993,5.801088349404589,14.020444869995117,2.205059766769409,-3.6727054119110107
109011,,11.769895553588867,,
109012,3.153610636700827,,2.070984363555908,-0.9696516990661621
109032,0.9863933277295832,10.376470565795898,0.22505496442317963,-1.3263877630233765
109051,,8.374917984008789,,
109052,1.45876660949613,,0.0,-1.0103530883789062
109072,3.974983666344439,5.999869346618652,,
109073,,,0.7350199222564697,-0.8403648138046265
109112,6.660744166225001,3.337517261505127,0.8906430602073669,-1.4484920501708984
109150,,7.690176010131836,,
109151,2.1134685214793665,,-1.623268723487854,-0.6177040338516235
109190,,8.358158111572266,,
109191,2.9801559584085506,,-2.185906171798706,1.3024457693099976
109231,5.163979026131324,4.546588897705078,-0.8954314589500427,-0.5291185975074768
109270,4.665367263451063,13.433865547180176,,
109271,,,1.259350061416626,0.5770025849342346
109310,,11.063606262207031,,
109311,3.5506654894668435,,-2.8826189041137695,1.8986018896102905
109350,,12.751518249511719,,
109351,7.5651021216559915,,-7.134721279144287,2.8443117141723633
109390,6.240130146332211,11.681309700012207,,
109391,,,3.265691041946411,3.272873640060425
109428,,6.8043212890625,,
109429,14.18930190150835,,-1.8842366933822632,-14.48970890045166
109469,12.462948627872,20.570980072021484,-7.070077419281006,-3.581725835800171
109629,4.866331169025682,4.862623691558838,-0.5817909836769104,-1.0534487962722778
109668,5.31419345567609,4.616020679473877,0.2106897532939911,-0.7398083209991455
109708,3.0902193518745875,7.745242595672607,-0.9145850539207458,1.039083480834961
109747,,7.723694801330566,,
109748,2.8448326648917948,,-0.9433154463768005,0.7948749661445618
109787,3.590797073583695,11.101913452148438,1.6615760326385498,-0.040701430290937424
109827,4.939170072084638,13.204022407531738,1.86508309841156,
109828,,,,-1.9800047874450684
109868,8.48039048069593,14.516044616699219,1.7693150043487549,5.509057998657227
109907,6.509251393111996,12.701239585876465,-5.8442463874816895,
109908,,,,-3.818751811981201
109947,,13.836091995239258,,
109948,9.315488195070616,,4.206612586975098,-7.898471355438232
109987,,9.495404243469238,,
109988,4.273778703029185,,-4.525041103363037,-1.3958195447921753
110027,3.895983334405805,12.978967666625977,-0.3256114423274994,
110028,,,,-3.270479440689087
110067,2.5071155375823073,7.888894557952881,,
110068,,,0.9433154463768005,-2.1068975925445557
110107,3.8370496454554055,6.18182897567749,0.7733271718025208,
110108,,,,-0.6177040338516235
110147,4.8386102787186,4.972756862640381,,
110148,,,0.26575639843940735,-1.0079588890075684
110186,,6.835445880889893,,
110187,2.9097996845318344,,-1.0869675874710083,-0.6607996821403503
110217,2.319616348180574,8.31985092163086,-1.335964560508728,
110218,,,,0.5746083855628967
110226,,7.261613845825195,,
110227,3.2568701975334453,,-1.338358759880066,1.0342950820922852
110246,,5.971138954162598,,
110247,3.7501658085088176,,-1.2425906658172607,-0.49320554733276367
110266,,6.821080684661865,,
110267,2.950918998462316,,-0.4884171485900879,-0.9528923034667969
110286,1.691333725147455,10.089165687561035,-0.38546648621559143,
110287,,,,0.6320692300796509
110306,,11.8441162109375,,
110307,3.3499115832603135,,-1.0319008827209473,1.843535304069519
110326,,11.647790908813477,,
110327,3.7951578409494022,,-1.7142484188079834,2.63362193107605
110347,3.196407214532548,11.892000198364258,-3.3710360527038574,0.021547814831137657
110365,,13.053187370300293,,
110366,4.8255308027279415,,-4.611232280731201,
110367,,,,0.2106897532939911
110386,5.403584435049026,14.140154838562012,-2.8371291160583496,2.33913516998291
110406,,13.627796173095703,,
110407,5.4360356606274465,,0.7948749661445618,2.8778305053710938
110425,4.574752659182811,13.687650680541992,0.9002198576927185,
110426,,,,0.45489832758903503
110446,5.821327970874208,12.140996932983398,-2.073378562927246,-5.432443618774414
110465,6.651393497713527,10.465055465698242,-4.900930881500244,-6.009446144104004
110485,4.131661325081689,9.006986618041992,-4.93923807144165,-3.0358476638793945
110505,,10.76193618774414,,
110506,1.2195025834716609,,-1.400607943534851,-0.6033388376235962
110526,,15.547945976257324,,
110527,7.652146839764918,,0.4908113479614258,-4.8482584953308105
110545,5.979219053174072,13.876792907714844,1.192312479019165,-3.5960910320281982
110565,,10.647014617919922,,
110566,1.8992338041072179,,-0.9576807022094727,-2.1116859912872314
110585,1.474804917058774,9.08838939666748,-3.023876667022705,-0.8403648138046265
110604,,7.524975776672363,,
110605,3.2369987423776205,,-3.84269380569458,0.2968810200691223
110622,,6.210559368133545,,
110623,3.823429263861749,,-3.1675288677215576,-0.4141969084739685
110643,5.084648566691008,4.654327869415283,-1.2713210582733154,-1.5610195398330688
110663,5.497451538593992,4.477157115936279,0.26815059781074524,-1.678335428237915
110683,,5.145139217376709,,
110684,4.95477402249726,,0.8858546018600464,-1.0247182846069336
110703,,6.1052141189575195,,
110704,4.068641129075779,,0.6799532771110535,0.026336219161748886
110723,,6.998251438140869,,
110724,3.2017505208885737,,-0.038307227194309235,0.4596867263317108
110743,,7.682993412017822,,
110744,2.3671582915767106,,-0.6033388376235962,0.12449848651885986
110764,3.2333693852987335,6.8593878746032715,-0.0071826050989329815,0.29209262132644653
110783,,6.607996463775635,,
110784,3.690396739028294,,0.5195417404174805,0.5746083855628967
110803,,7.73087739944458,,
110804,3.0118150114318007,,-0.19153612852096558,1.2856862545013428
110823,,10.374075889587402,,
110824,1.9936684283846315,,-0.7829039692878723,1.0295066833496094
110843,,11.923124313354492,,
110844,2.5662232309051762,,-0.629675030708313,0.5722141861915588
110863,,12.148179054260254,,
110864,2.793486860543084,,0.11971008777618408,-1.8483237028121948
110883,3.748873605041865,13.074735641479492,0.9169792532920837,-1.2330138683319092
110903,6.9454945732426685,15.514427185058594,,
110904,,,2.0015525817871094,2.1954829692840576
110923,7.989552828959721,14.695610046386719,,
110924,,,0.47165772318840027,5.616796970367432
110943,4.458389329410079,13.390769958496094,-2.9735984802246094,0.22266076505184174
110963,8.594447326111702,15.902287483215332,-0.9217676520347595,-6.5696892738342285
110983,9.14240684422179,15.526397705078125,,
110984,,,1.9728221893310547,-7.38132381439209
111003,2.271065959622605,10.182539939880371,2.013523578643799,
111004,,,,-0.6009446382522583
111022,,4.994304656982422,,
111023,5.924124016369688,,-2.8802247047424316,1.1635819673538208
111042,7.275994888916234,6.332663536071777,,
111043,,,-4.953603267669678,-4.639962673187256
111062,,11.063606262207031,,
111063,3.1363228706052637,,-0.6368576288223267,-3.4572272300720215
111082,4.832734608014794,13.608642578125,,
111083,,,2.5258827209472656,-2.1715409755706787
111102,,11.547234535217285,,
111103,2.418036193400085,,1.4389152526855469,-1.3742717504501343
111122,,9.473855972290039,,
111123,1.2307181453762919,,0.5027823448181152,-1.8770540952682495
111141,,6.885724067687988,,
111142,2.9672087834836827,,0.40222588181495667,-1.2689268589019775
111161,,4.292803764343262,,
111162,5.577968563162218,,0.7733271718025208,-0.8738836050033569
111181,,3.514688014984131,,
111182,6.4666980677101185,,1.0438719987869263,-1.6376339197158813
111202,5.637962833191371,4.173093795776367,0.2537853717803955,-1.1803414821624756
111221,3.106716840881857,6.660669326782227,,
111222,,,-0.5291185975074768,-0.5722141861915588
111241,1.1010232782527605,9.334992408752441,-1.0055646896362305,
111242,,,,-0.11013327538967133
111262,,9.370905876159668,,
111263,2.2612192396240567,,-1.3048399686813354,1.048660397529602
111281,3.70566288381003,6.955155849456787,-1.5969325304031372,1.314416766166687
111301,5.258146232907623,4.630385875701904,-1.6927006244659424,
111302,,,,0.1867477297782898
111321,3.6027246284208263,6.143521785736084,,
111322,,,-1.3263877630233765,-0.4908113479614258
111342,,10.398017883300781,,
111343,1.3275694189940614,,-0.8834604024887085,0.26336219906806946
111361,3.8382305431530006,12.969390869140625,-0.2777273952960968,1.0342950820922852
111381,,12.306197166442871,,
111382,3.893441647586256,,-0.16519992053508759,2.0039467811584473
111400,,10.582371711730957,,
111401,2.3770653628428677,,-2.5977089405059814,0.7110779285430908
111421,5.310738843820203,11.815385818481445,-5.805939197540283,
111422,,,,-0.14365209639072418
111441,7.192874656999024,15.119383811950684,-4.309563159942627,
111442,,,,2.853888511657715
111460,7.060745966677815,14.839262008666992,0.8044517636299133,3.8594532012939453
111480,,13.055582046508789,,
111481,6.0041387906332995,,2.363077163696289,3.021482467651367
111500,7.580524245680866,11.401188850402832,-0.17238251864910126,-7.824251174926758
111519,,9.5408935546875,,
111520,7.332468270806415,,-4.084507942199707,-7.4100542068481445
111539,,10.08437728881836,,
111540,5.83605417648175,,-6.035782337188721,-4.5394062995910645
111559,3.4589944383764535,12.832921028137207,-2.7916390895843506,-1.5203180313110352
111579,,15.993267059326172,,
111580,7.220834934640198,,0.021547814831137657,-4.055777549743652
111599,,13.615824699401855,,
111600,6.396002188409618,,1.7860745191574097,-4.750096321105957
111620,2.7352888051752937,10.302249908447266,0.7015010714530945,-2.497152328491211
111639,,8.925583839416504,,
111640,0.6949559058122542,,-1.4963760375976562,-1.1204863786697388
111659,3.376154525519824,6.742072105407715,-3.0166940689086914,-0.4812345504760742
111679,4.344835982656483,5.693411827087402,-3.0813376903533936,
111680,,,,-0.8236053586006165
111699,4.5020128622663576,5.1810526847839355,-1.6927006244659424,-1.2258312702178955
111719,4.975705059448665,4.867412090301514,0.1364694982767105,-0.6703764796257019
111738,,4.7836151123046875,,
111739,5.30210595666322,,1.0749965906143188,-0.6200982332229614
111759,,4.790797710418701,,
111760,5.165226007411641,,0.6943184733390808,-0.4357447028160095
111779,4.094162548913845,5.959167957305908,-0.21547815203666687,
111780,,,,0.27054479718208313
111798,,7.285555839538574,,
111799,3.2467881985058757,,-0.8571242094039917,0.7709329724311829
111818,,7.189787864685059,,
111819,3.3105002070825718,,-0.7422025203704834,0.8259995579719543
111838,,6.406883716583252,,
111839,3.9735174905313544,,-0.24660277366638184,0.9720458984375
111858,3.3058561959488584,6.885724067687988,,
111859,,,-0.272938996553421,0.5674257874488831
111878,,10.280701637268066,,
111879,1.4651615866122185,,-0.4141969084739685,0.31603461503982544
111898,4.112962208662124,13.417106628417969,,
111899,,,-0.2346317619085312,0.7852981686592102
111918,,14.358027458190918,,
111919,4.861808143172714,,0.272938996553421,-2.1092917919158936
111937,,15.52160930633545,,
111938,6.483227731715821,,,
111939,,,2.2170307636260986,-1.1971008777618408
111958,8.56447517279089,16.27338981628418,,
111959,,,3.6104562282562256,2.6647465229034424
111978,7.644711639973715,14.36760425567627,0.8188169598579407,5.073313236236572
111997,5.061564041083763,14.010868072509766,,
111998,,,-2.7676970958709717,-2.0638017654418945
112017,14.035418802338292,16.21832275390625,,
112018,,,0.2513911724090576,-13.227964401245117
112037,8.140755269771024,13.651738166809082,1.678335428237915,
112038,,,,-7.879317760467529
112057,1.7610262505710117,9.41639518737793,,
112058,,,-1.4077905416488647,-0.2298433631658554
112077,5.196693271342931,9.531316757202148,-4.972756862640381,-2.0829553604125977
112097,3.886929637612632,11.973402976989746,-1.3670891523361206,
112098,,,,-3.823540210723877
112117,3.7962324438609216,10.400412559509277,1.9919757843017578,-4.048594951629639
112136,,7.649474620819092,,
112137,2.9092370546542505,,1.6927006244659424,-1.8602946996688843
112156,2.7119174032771105,7.422025203704834,0.4692635238170624,-2.298433542251587
112176,1.823037853754028,7.9846625328063965,-0.08619125932455063,
112177,,,,-1.699883222579956
112197,,7.328651428222656,,
112198,2.505603613701525,,0.019153613597154617,-0.5937620401382446
112216,4.206841282996337,5.69580602645874,0.3423708379268646,-0.2992752194404602
112236,5.852346044419521,3.909731388092041,0.031124621629714966,
112237,,,,-0.8307880163192749
112256,5.482460318098651,4.2329487800598145,-0.4836287498474121,
112257,,,,-1.3024457693099976
112276,3.762986521140964,5.949591159820557,-0.5027823448181152,
112277,,,,-1.137245774269104
112296,1.969050914232066,8.034940719604492,-0.3974374830722809,
112297,,,,-0.2801215946674347
112316,2.325298770043239,8.607154846191406,-0.8092401623725891,0.8667010068893433
112335,,7.618350028991699,,
112336,2.991685790387788,,-0.9648633003234863,1.0342950820922852
112355,,6.337451934814453,,
112356,3.912093651483317,,-0.5841852426528931,0.9672574996948242
112376,2.6893668676878826,7.465120792388916,-0.021547814831137657,0.2992752194404602
112395,,10.005369186401367,,
112396,1.8722989017896747,,-0.181959331035614,0.9624691009521484
112415,3.04656526996433,12.60307788848877,-0.40462008118629456,
112416,,,,0.21787235140800476
112435,,14.386757850646973,,
112436,4.799792468035056,,-1.290474772453308,0.3734954595565796
112455,5.431742985764636,13.4506254196167,-3.993528366088867,1.6041151285171509
112475,,13.670891761779785,,
112476,5.783694188772284,,-4.525041103363037,1.4676456451416016
112494,,13.397953033447266,,
112495,5.18794469191247,,-0.9026140570640564,3.0789434909820557
112515,5.1817440593473965,12.411541938781738,0.9145850539207458,
112516,,,,3.4763808250427246
112535,8.08396667935669,11.113883972167969,-1.3263877630233765,-8.456320762634277
112555,8.432655582660853,10.321403503417969,-4.364629745483398,-8.47786808013916
112575,8.5531953250557,14.018051147460938,-6.205770969390869,-6.581660270690918
112594,6.39112639383945,15.847221374511719,,
112595,,,-2.315192937850952,-0.1149216815829277
112615,7.061454222905328,16.304513931274414,0.5817909836769104,-2.006340980529785
112634,,11.81059741973877,,
112635,6.079085482533954,,1.3623007535934448,-5.892130374908447
112654,,8.485051155090332,,
112655,3.597137977140565,,0.27054479718208313,-3.7876269817352295
112672,,7.438784599304199,,
112673,2.275041047449062,,-0.9313444495201111,-0.9768342971801758
112692,3.7210086406719185,6.18182897567749,,
112693,,,-1.7812861204147339,0.1867477297782898
112712,4.486145733259126,5.475539207458496,,
112713,,,-2.4899697303771973,-0.33997663855552673
112732,4.819902943627219,4.98472785949707,-2.008735179901123,-1.292868971824646
112752,4.937315925353869,4.812345504760742,-0.8403648138046265,-1.9321208000183105
112772,5.098604849179926,4.702212333679199,0.1867477297782898,-1.824381709098816
112792,4.964920775673648,4.93923807144165,0.6440402865409851,
112793,,,,-0.5219359993934631
112811,3.911343115249538,6.564900875091553,0.7493851184844971,
112812,,,,0.6703764796257019
112831,,8.451532363891602,,
112832,3.015753392465956,,0.9050082564353943,1.0821791887283325
112851,,7.560888767242432,,
112852,2.959049961886571,,1.2689268589019775,0.06703764945268631
112872,4.756581815957696,5.403713226318359,1.2018892765045166,0.27054479718208313
112893,5.099687731289539,4.697423934936523,0.3734954595565796,-0.5841852426528931
112911,,8.190564155578613,,
112912,1.8234038728229967,,-0.7445967197418213,-0.2537853717803955
112932,,13.529633522033691,,
112933,4.466926255914826,,-1.1061211824417114,1.2641384601593018
112951,,14.03959846496582,,
112952,4.277275077930476,,-0.2513911724090576,-0.8690952062606812
112971,,14.109030723571777,,
112972,4.396095424751436,,0.272938996553421,-0.38307225704193115
112992,5.740421443978847,14.403517723083496,0.5171475410461426,2.473210334777832
113011,6.483821394854356,13.951013565063477,-0.5626373887062073,4.125209331512451
113031,5.9036866130410415,12.571952819824219,,
113032,,,-2.3056161403656006,3.955221176147461
113051,6.624809406345978,15.131354331970215,0.47644615173339844,
113052,,,,-4.611232280731201
113071,12.716116367764005,16.699556350708008,4.759673118591309,-10.326191902160645
113091,7.807138052547374,13.749900817871094,4.338293552398682,-6.2416839599609375
113110,,7.299921035766602,,
113111,3.002148018183563,,-0.026336219161748886,0.5746083855628967
113130,,8.17380428314209,,
113131,6.198667678424843,,-4.994304656982422,-3.404554843902588
113151,5.905150941991668,11.535264015197754,-3.7660791873931885,-4.642356872558594
113170,,11.920730590820312,,
113171,2.674678469434402,,-0.20111294090747833,-2.408566951751709
113190,,9.96945571899414,,
113191,1.9520111570039427,,1.5179238319396973,-2.4133553504943848
113210,,9.294290542602539,,
113211,1.5880458704283302,,1.4077905416488647,-1.8579005002975464
113230,1.4376339228069324,8.738836288452148,0.7230489253997803,-1.8387469053268433
113251,3.9955555543155787,5.889736175537109,,
113252,,,0.4692635238170624,-0.2346317619085312
113270,5.925492522938857,3.9408559799194336,,
113271,,,0.8762778043746948,-0.6560112833976746
113290,,3.3518824577331543,,
113291,6.507496838739238,,0.7565677165985107,-1.625662922859192
113310,,4.613626480102539,,
113311,5.170224205777995,,0.18914192914962769,-0.7852981686592102
113329,,6.914454460144043,,
113330,2.8105795343448605,,-0.4884171485900879,-0.9648633003234863
113349,,8.69095230102539,,
113350,1.6280838973994662,,-0.8930372595787048,-0.0071826050989329815
113370,,8.686163902282715,,
113371,2.9723177703362142,,-1.53707754611969,1.4173674583435059
113389,3.8188356380568624,6.521805286407471,,
113390,,,-2.075772762298584,0.5099649429321289
113409,,4.812345504760742,,
113410,5.01125994252422,,,
113411,,,-1.7262194156646729,-0.4572925269603729
113428,,6.983886241912842,,
113430,2.7394245715729064,,-0.8164227604866028,-0.9696516990661621
113449,,12.126631736755371,,
113450,2.639034898522124,,-0.38067805767059326,0.10055647045373917
113469,4.776786565844227,13.448230743408203,0.1604115068912506,1.9584569931030273
113489,,11.868058204650879,,
113490,4.200456757913079,,-0.7422025203704834,2.801215887069702
113509,5.489173289939244,11.133037567138672,,
113510,,,-4.709394931793213,2.7964274883270264
113529,7.043878632989715,13.223176002502441,-6.411672115325928,1.8986018896102905
113548,6.279851501555733,14.190433502197266,,
113549,,,-2.3127987384796143,3.5865142345428467
113568,6.093530269475941,13.82172679901123,0.45489832758903503,3.667917013168335
113588,,11.745953559875488,,
113589,8.352550423180775,,-1.2234370708465576,
113590,,,,-8.633491516113281
113608,,9.99100399017334,,
113609,9.764396797765787,,-4.206612586975098,-9.998186111450195
113647,,14.377181053161621,,
113648,5.1266101075728745,,-0.811634361743927,0.5410895943641663
113686,,12.722787857055664,,
113687,10.138925653910642,,3.1962592601776123,-9.227252960205078
113726,,8.17141056060791,,
113727,2.1034405906562728,,-2.4612393379211426,-1.9943699836730957
113766,,6.876147270202637,,
113767,4.193543585119031,,-4.6255974769592285,-0.7757213711738586
