relative_time,LinearAccelerometerSensor,AccX,AccY,AccZ
0,7.283339041119164,15.794548988342285,-2.9257144927978516,-1.4867992401123047
40,3.1235084025668574,8.291120529174805,-2.075772762298584,-0.545877993106842
80,3.404006639234297,8.29590892791748,1.3910311460494995,-1.9105730056762695
119,0.7083386720194368,,0.1604115068912506,
120,,10.462661743164062,,0.9792284965515137
159,2.759038031492573,7.546523571014404,-1.2186486721038818,1.3024457693099976
199,4.625838951107887,5.480327606201172,-1.216254472732544,0.4357447028160095
239,4.677323344415361,,,
240,,5.2480902671813965,-0.20350714027881622,-0.35673606395721436
279,2.088420404606542,,,
280,,8.111555099487305,1.8842366933822632,0.27054479718208313
320,2.9156493092920814,9.390059471130371,2.980781078338623,1.843535304069519
360,2.8771246647242705,9.528923034667969,3.203441858291626,1.4891934394836426
401,5.601453537991835,14.717158317565918,2.013523578643799,2.3750481605529785
439,4.786823689073312,,,
440,,12.229581832885742,3.2848446369171143,3.6080620288848877
479,2.4704443995896006,,,
480,,10.630255699157715,2.0853497982025146,2.717418909072876
519,7.617656235577811,,2.22660756111145,
520,,15.840038299560547,,-4.113238334655762
559,2.508791913498283,9.35654067993164,1.3934253454208374,-2.1308395862579346
599,3.8591249207312006,,0.24660277366638184,
600,,7.2113356590271,,-2.0901381969451904
638,0.9972603343161351,,,
639,,9.62947940826416,1.0295066833496094,0.07182604819536209
679,2.590010187430948,11.69806957244873,3.380612850189209,0.16759411990642548
718,5.0756202506644525,,,
719,,4.63517427444458,1.9105730056762695,-0.15562310814857483
758,5.238048755967957,,,
759,,4.611232280731201,0.1149216815829277,0.2992752194404602
797,3.3441183297334556,,,
798,,7.187393665313721,-1.0606313943862915,1.237802267074585
827,2.3900912817278455,8.705317497253418,-0.5219359993934631,
828,,,,2.2577321529388428
836,2.484811708466455,9.828198432922363,-0.2561795711517334,
837,,,,2.918531894683838
856,3.1927669617257077,9.86889934539795,0.2585737705230713,3.9240965843200684
876,2.7702786361251173,10.000580787658691,1.0438719987869263,3.6559460163116455
896,2.4229373693743397,11.78904914855957,0.9241618514060974,2.3127987384796143
916,2.6475622480673344,,,
917,,12.346898078918457,0.608127236366272,0.7374141216278076
937,4.090517354762629,13.555970191955566,-0.1149216815829277,2.3511061668395996
957,7.617782428690083,12.938265800476074,-0.10295066982507706,8.099584579467773
977,6.696017251597505,,,
978,,12.567164421081543,2.1164743900299072,7.304709434509277
997,4.2464634261510685,13.42668342590332,2.315192937850952,2.2146365642547607
1017,4.322286144678472,13.014880180358887,1.213860273361206,-0.8786720037460327
1037,6.28144798156581,,-3.0142998695373535,
1038,,14.408306121826172,,-0.8403648138046265
1056,5.260978663674068,,-3.406949043273926,
1057,,12.540828704833984,,-1.0558429956436157
1077,2.958521680253795,,-2.3271639347076416,
1078,,9.646238327026367,,-0.2322375625371933
1097,4.121017845864963,7.939172744750977,-0.5578489899635315,
1098,,,,-2.008735179901123
1116,4.391695048308668,8.542511940002441,1.2856862545013428,-2.296039342880249
1136,3.093430936139522,,1.436521053314209,
1137,,9.418789863586426,,-0.9864110946655273
1157,1.5244249322712644,9.892841339111328,-0.3471592366695404,-0.009576806798577309
1176,1.3338966620052517,8.453926086425781,-0.6057330369949341,1.194706678390503
1195,2.705077067350876,,,
1196,,7.4555439949035645,-1.434126853942871,1.6400281190872192
1216,3.568347081088565,6.75883150100708,-1.8267759084701538,1.216254472732544
1236,3.7802738159147964,6.291962146759033,-1.213860273361206,0.5746083855628967
1255,4.6196906054716695,5.264849662780762,-0.1149216815829277,
1256,,,,-0.040701430290937424
1275,4.425782327407746,,,
1276,,5.415684223175049,0.6224924325942993,0.05027823522686958
1295,3.5631396070822294,,,
1296,,6.335057735443115,1.1635819673538208,0.11013327538967133
1315,2.1620233616868,,,
1316,,7.982268333435059,1.5921441316604614,0.14365209639072418
1335,2.2435877876832144,,,
1336,,8.595184326171875,2.4157495498657227,0.7948749661445618
1355,2.4177800168037957,,,
1356,,8.992621421813965,2.4636335372924805,1.7501614093780518
1376,3.025120623997312,8.916007041931152,2.717418909072876,2.43011474609375
1395,3.5523572053606234,8.307879447937012,2.8586769104003906,2.8371291160583496
1415,2.8227305521029438,,,
1416,,10.189722061157227,2.698265314102173,2.410961151123047
1434,4.654369204811985,,,
1435,,13.613430976867676,2.449268341064453,2.387019157409668
1454,7.1390721074534556,,,
1455,,16.666038513183594,2.5522189140319824,0.6631938815116882
1474,6.416060811294459,,,
1475,,14.647726058959961,4.244919776916504,2.6791117191314697
1494,5.291483157522818,,,
1495,,11.654973983764648,3.4596214294433594,4.836287498474121
1514,4.62591275667813,,2.8131868839263916,
1515,,10.51054573059082,,5.020640850067139
1534,3.3624206930685063,,0.33518823981285095,
1535,,12.847286224365234,,-0.07661445438861847
1554,6.7188431134536195,15.43062973022461,1.601720929145813,
1555,,,,-2.8155810832977295
1572,8.241949604090477,12.959814071655273,1.7118542194366455,
1573,,,,-6.947973251342773
1592,3.288684669231408,10.292673110961914,1.0199298858642578,-2.6001031398773193
1612,2.7979147912249003,,,
1613,,7.438784599304199,1.4748282432556152,-1.1037269830703735
1632,2.9297620433224885,7.649474620819092,0.090979665517807,-0.6536170840263367
1653,3.5032588228770534,8.255207061767578,-0.912190854549408,-0.9528923034667969
1673,1.7256735329882227,,,
1674,,9.488221168518066,0.33279404044151306,-0.1388636976480484
1692,1.827484475107694,,2.0183119773864746,
1693,,11.439496040344238,,0.45010992884635925
1712,2.458562764814084,,3.1747114658355713,
1713,,11.578359603881836,,0.2106897532939911
1733,3.3951248334763324,,,
1734,,7.050923824310303,3.1507694721221924,-0.8307880163192749
1753,5.458818933371839,,2.2170307636260986,
1754,,4.357447147369385,,-0.2346317619085312
1772,6.115469855834234,,,
1773,,3.665522813796997,1.0438719987869263,-0.2513911724090576
1793,5.6921588973427,4.091690540313721,0.4596867263317108,0.17717093229293823
1813,5.090608341758829,4.987122058868408,-0.7829039692878723,0.5578489899635315
1832,2.8817285500260352,,,
1833,,7.620744228363037,-1.0055646896362305,0.6919242739677429
1853,1.7679260923032614,9.763554573059082,-0.14604631066322327,2.0254945755004883
1872,2.741240161159687,10.232817649841309,-0.0933738648891449,
1873,,,,3.00711727142334
1892,4.09633083381321,,,
1893,,9.734824180603027,-0.849941611289978,4.271255970001221
1911,2.8209731577745942,9.763554573059082,0.10055647045373917,3.383007049560547
1931,2.373043157629547,11.678915977478027,-0.3519476354122162,1.656787633895874
1950,3.5929932170647825,,,
1951,,12.957419395446777,1.4724340438842773,2.2457611560821533
1970,3.4667609758264533,,,
1971,,12.342109680175781,1.5753847360610962,3.050212860107422
1990,7.114686428084565,,,
1991,,12.859257698059082,1.644816517829895,7.364564418792725
2010,4.479168890427621,,,
2011,,11.39400577545166,0.7709329724311829,5.322310447692871
2031,5.221156313628502,14.765042304992676,1.2641384601593018,0.19153612852096558
2050,6.204154978839974,,,
2051,,15.693992614746094,-0.2849099934101105,-0.4165911078453064
2070,8.133834496154925,,-3.713406801223755,
2071,,15.995661735534668,,-2.2457611560821533
2090,3.6377586246587743,12.18409252166748,-2.2409727573394775,-0.14604631066322327
2110,3.2511777944441036,,,
2111,,8.178592681884766,-1.414973258972168,-1.1420341730117798
2130,4.900501163310884,7.16584587097168,0.8738836050033569,
2131,,,,-2.5977089405059814
2150,4.202393195107304,,,
2151,,7.85537576675415,1.6208745241165161,-1.9177556037902832
2170,2.1866779417623414,9.188945770263672,0.7637503147125244,
2171,,,,-0.586579442024231
2189,1.0332673310663778,,,
2190,,10.414777755737305,-0.7996633648872375,0.933738648891449
2209,1.683047389618395,,,
2210,,8.650250434875488,-1.1851298809051514,1.599326729774475
2229,2.93271263086654,7.295132637023926,-1.455674648284912,
2230,,,,1.2258312702178955
2249,3.5206691244682986,,-0.9816226959228516,
2250,,6.461950302124023,,0.8978256583213806
2269,4.147885503161685,,,
2270,,5.748478412628174,0.12689268589019775,-0.12210428714752197
2289,4.880943001484471,5.013458251953125,0.6488286852836609,-0.2561795711517334
2309,4.371253016675083,,,
2310,,5.523423194885254,0.9672574996948242,-0.17238251864910126
2330,3.0420175811540426,,,
2331,,6.833051681518555,1.4317326545715332,0.5770025849342346
2350,3.019785012936025,,2.0231003761291504,
2351,,7.089231014251709,,0.38067805767059326
2369,2.723261280235014,,,
2370,,7.376535415649414,1.9919757843017578,
2371,,,,0.7182605266571045
2390,1.918057876660398,8.379706382751465,1.556231141090393,
2391,,,,1.53707754611969
2410,2.5704013611990266,8.932766914367676,1.6352397203445435,2.7222073078155518
2430,2.914607674581352,,,
2432,,10.02691650390625,2.4612393379211426,2.765302896499634
2450,3.3774718663351946,,,
2451,,11.975796699523926,2.7940332889556885,1.8938134908676147
2470,5.72311085011765,15.30373764038086,2.0015525817871094,
2471,,,,1.039083480834961
2489,7.933733669833369,17.288530349731445,2.9903578758239746,1.4245500564575195
2509,6.787124831367293,,4.613626480102539,
2510,,14.322114944458008,,3.643975019454956
2529,6.306693853329107,10.862493515014648,3.318363666534424,6.392518520355225
2549,2.4105250047115967,10.656591415405273,2.3750481605529785,2.5905263423919678
2568,4.18311433155541,,,
2569,,13.37161636352539,0.026336219161748886,-0.8762778043746948
2588,7.621104261429194,,,
2589,,15.291766166687012,2.1954829692840576,-4.479551315307617
2609,5.892361250980845,12.787431716918945,1.7334020137786865,-4.455609321594238
2629,2.8315200239009353,9.153033256530762,1.5658079385757446,-2.207453966140747
2649,3.8025874112908715,6.782773494720459,1.359906554222107,-1.8315643072128296
2668,4.284367449619532,,,
2669,,7.173028469085693,-0.05027823522686958,-2.2864625453948975
2688,3.8030502274371383,7.544129371643066,-0.689530074596405,-1.2330138683319092
2708,1.6907866226194126,8.908824920654297,0.4213795065879822,0.07422025501728058
2727,2.0118866785569054,,,
2728,,11.520898818969727,2.4660277366638184,0.16519992053508759
2747,2.5349689055873883,,,
2748,,11.022904396057129,3.73016619682312,0.014365210197865963
2767,3.0249420286566484,,,
2768,,7.156269073486328,2.9759926795959473,
2769,,,,-0.23702596127986908
2787,4.741935509612013,,,
2788,,5.03021764755249,1.3623007535934448,-0.2346317619085312
2808,5.388458435764801,,0.33997663855552673,
2809,,4.414907932281494,,0.2106897532939911
2828,5.317002307178915,4.659116744995117,-0.4668693244457245,0.3495534360408783
2848,4.412709580758314,5.894524574279785,-1.1899182796478271,0.8451532125473022
2868,2.9046370429570643,7.594407558441162,-0.9648633003234863,1.3934253454208374
2887,2.1125374153029073,,,
2888,,8.827422142028809,-0.4141969084739685,2.123656988143921
2907,3.0727338488663865,,,
2908,,9.706093788146973,-0.6919242739677429,3.3854012489318848
2927,4.114272763405959,,,
2928,,10.29746150970459,-0.4213795065879822,4.651933670043945
2946,3.1901483940120827,,,
2947,,10.943896293640137,0.6200982332229614,3.780444383621216
2967,1.7911641133196357,,0.3232172429561615,
2968,,11.439496040344238,,1.4293384552001953
2987,2.313852996924336,11.911153793334961,1.0678139925003052,1.6639702320098877
3007,4.259862115983613,12.890381813049316,1.37906014919281,3.84269380569458
3026,7.690564792960059,,2.6240451335906982,
3027,,13.0914945602417,,7.795520782470703
3046,4.469909730891591,,,
3047,,11.389217376708984,2.233790159225464,5.142745018005371
3066,3.5348125480364385,,,
3068,,13.168108940124512,0.5363011956214905,0.912190854549408
3087,5.97900723589255,,,
3088,,15.354015350341797,-0.7829039692878723,-0.07182604819536209
3106,7.4087947545856725,15.093047142028809,-3.9600095748901367,-1.41257905960083
3126,3.541473577883116,,,
3127,,11.829751014709473,-2.209848165512085,-0.10534487664699554
3146,4.027049633871193,,,
3147,,7.99184513092041,-2.497152328491211,-1.05105459690094
3165,5.01581380613529,,,
3166,,7.6997528076171875,-0.10773907601833344,-2.9448680877685547
3185,3.217542106868635,,,
3186,,9.169792175292969,0.8236053586006165,-1.4724340438842773
3205,1.7903356561346806,,,
3206,,11.396400451660156,-0.6057330369949341,1.0223240852355957
3225,0.5386096876955276,,-0.42616790533065796,
3226,,10.146626472473145,,1.2282254695892334
3247,2.558044281409979,7.383718013763428,-0.9720458984375,1.0079588890075684
3265,3.990963264772268,,,
3266,,6.165069580078125,-1.50355863571167,0.7254431247711182
3285,4.367507622575141,,,
3286,,5.657498836517334,-1.0199298858642578,0.40222588181495667
3305,4.986170526054297,4.896142482757568,-0.3256114423274994,
3306,,,,0.17477671802043915
3324,4.597955348836326,,0.6248866319656372,
3325,,5.219359874725342,,0.1412578970193863
3345,3.4089189624772276,6.411672115325928,1.3096283674240112,0.7326257228851318
3365,2.39337757689545,8.066065788269043,2.2361843585968018,1.357512354850769
3385,3.0116349937182267,7.489062786102295,2.6575639247894287,0.6129156351089478
3404,3.6288247812773893,,,
3405,,6.773196697235107,2.7557260990142822,0.1628057211637497
3424,3.144336992980753,,,
3425,,6.691793918609619,1.4197616577148438,0.9600749015808105
3444,2.8396133686211495,9.478644371032715,1.05105459690094,
3445,,,,3.361459255218506
3465,4.3426554007387494,12.54801082611084,1.8148049116134644,3.6176388263702393
3484,6.326574366344762,15.042769432067871,2.9496564865112305,3.090914487838745
3504,5.721237892169738,15.052346229553223,2.8826189041137695,1.113303780555725
3523,5.2229204703054535,,,
3524,,13.534421920776367,4.46518611907959,1.1085153818130493
3544,5.150416177766533,12.418724060058594,3.49314022064209,4.213795185089111
3563,6.098536093733665,,,
3564,,11.659762382507324,2.7126305103302,6.296750545501709
3583,3.3646251727042955,,,
3584,,12.897564888000488,0.3663128614425659,0.1628057211637497
3604,6.550996998627414,16.024391174316406,1.482010841369629,-1.0749965906143188
3624,8.427321334388933,12.96460247039795,3.471592426300049,-6.92881965637207
3643,3.5889661710414438,,2.3487119674682617,
3644,,9.6989107131958,,-2.937685489654541
3663,3.295326483937849,,,
3664,,7.137115478515625,1.6328455209732056,-1.577778935432434
3683,3.4228107444516978,,0.21547815203666687,
3684,,7.156269073486328,,-1.1180921792984009
3703,3.8571175216165665,,-0.9576807022094727,
3704,,8.200140953063965,,-1.5442601442337036
3722,2.4946794159442978,,,
3723,,9.531316757202148,-0.44532153010368347,-0.16759411990642548
3743,1.698381590427452,11.118672370910645,1.1180921792984009,0.17477671802043915
3763,1.544671772655488,10.994174003601074,2.494758129119873,0.33997663855552673
3782,2.5254671892093934,,,
3783,,7.709329605102539,2.9041666984558105,-0.4884171485900879
3802,5.66664878991991,,,
3803,,4.335899353027344,2.6384103298187256,-0.9313444495201111
3824,6.129375529755509,3.5936968326568604,1.86508309841156,0.13407529890537262
3842,4.577712733743858,,,
3843,,5.190629482269287,1.0630255937576294,-0.10295066982507706
3862,3.17081963782208,,,
3863,,6.643909931182861,0.40462008118629456,0.4189853072166443
3882,2.5162227702290085,,-0.7972691655158997,
3883,,8.188169479370117,,1.3407529592514038
3902,3.1347812925523577,9.023746490478516,-1.482010841369629,
3903,,,,2.3582887649536133
3922,3.169974222650024,8.966285705566406,-1.0319008827209473,2.9089550971984863
3942,4.029936347250491,8.482656478881836,-0.9959878921508789,3.928884983062744
3962,3.1439437412149736,,,
3963,,8.99740982055664,0.15801730751991272,3.6822822093963623
3982,1.4449815525870544,10.65898609161377,0.5051765441894531,1.9153614044189453
4001,3.151137942690276,,,
4002,,12.540828704833984,1.9297266006469727,1.6496049165725708
4021,3.2713384703937955,,,
4022,,12.09311294555664,2.1356279850006104,2.693476915359497
4041,6.709188213333532,14.437036514282227,0.646434485912323,5.7987565994262695
4061,6.957588871707989,13.374011039733887,-0.7972691655158997,6.835445880889893
4080,4.186077730422205,,,
4081,,13.848062515258789,0.2322375625371933,1.8363527059555054
4099,5.854945265646871,,,
4100,,15.516820907592773,1.0797849893569946,1.644816517829895
4120,6.410410651087508,15.251065254211426,-2.5953147411346436,
4121,,,,-0.44771572947502136
4140,5.151923936886573,11.99255657196045,-3.8570590019226074,-1.1540051698684692
4160,3.01279344197966,8.765172004699707,-2.0039467811584473,-0.6392518281936646
4180,5.235599021706004,6.6630635261535645,0.038307227194309235,-2.738966703414917
4199,3.9489101210079256,,1.944091796875,
4200,,8.549694061279297,,-1.678335428237915
4220,3.0278735675494204,,2.075772762298584,
4221,,10.022128105163574,,-0.6536170840263367
4239,1.7983690104629748,10.888829231262207,-0.043095629662275314,-0.05267243832349777
4278,3.58254558568836,,,
4279,,6.4595561027526855,-1.3335703611373901,0.7565677165985107
4319,4.390199036485254,5.621585369110107,-1.139639973640442,0.8619126081466675
4358,4.010402028771311,5.78678560256958,0.5554547905921936,0.2561795711517334
4397,3.082733886458849,,1.9297266006469727,
4398,,6.97430944442749,,0.26096799969673157
4437,1.7292449964070669,8.683769226074219,1.9728221893310547,0.933738648891449
4477,3.3171696407719606,10.41956615447998,2.4875755310058594,3.0621838569641113
4517,4.41387150444084,13.433865547180176,2.6815059185028076,1.6950948238372803
4556,6.68544274175767,,4.972756862640381,
4557,,14.355633735656738,,2.7676970958709717
4596,4.441651457473642,10.702081680297852,2.9233202934265137,4.4939165115356445
4636,6.507897787462595,15.595829963684082,1.115697979927063,-2.403778553009033
4676,2.6027838328845325,10.029311180114746,1.6615760326385498,-2.166752576828003
4716,3.7020228552542993,7.254431247711182,-0.21308395266532898,-1.4317326545715332
4755,2.5892770644921956,,,
4756,,8.825027465820312,-0.5147533416748047,-0.2346317619085312
4795,1.6577948796722792,,2.6360161304473877,
4796,,10.946290016174316,,0.6129156351089478
4835,4.730890080457286,,,
4836,,5.116408824920654,2.0207061767578125,-0.24420857429504395
4875,5.496385253463606,,,
4876,,4.268861770629883,1.1444283723831177,0.1149216815829277
4915,2.374449013492558,8.118738174438477,-0.9481038451194763,
4916,,,,1.0965443849563599
4955,2.7096716484105055,,,
4956,,7.948749542236328,-0.5817909836769104,2.425326347351074
5117,2.962142819790914,9.964667320251465,0.7158663272857666,
5119,,,,3.890577793121338
5153,7.081590625082051,,,
5154,,14.338873863220215,-4.3622355461120605,-2.0183119773864746
5193,3.152328926061025,,-2.2218191623687744,
5194,,8.75080680847168,,-1.2090718746185303
5233,3.7347220415202242,9.495404243469238,2.205059766769409,-2.008735179901123
5272,0.49584894823549597,,,
5273,,10.02691650390625,0.12210428714752197,1.094150185585022
5313,4.810993503741404,5.348646640777588,-1.723825216293335,0.8619126081466675
5355,5.306460728858638,4.505887508392334,-0.12449848651885986,0.5363011956214905
5372,4.548962091133249,5.262455463409424,0.8619126081466675,
5373,,,,0.05027823522686958
5392,3.225042913580158,,,
5393,,6.646304130554199,1.3838485479354858,0.2992752194404602
5413,2.4194654722452063,7.637503623962402,1.6903064250946045,0.8044517636299133
5433,2.563325237349022,7.644686222076416,2.1475989818573,0.7589619159698486
5453,2.3595126282422125,8.063671112060547,2.477998733520508,0.7948749661445618
5472,2.2493018020714244,,2.2218191623687744,
5473,,8.286332130432129,,1.5179238319396973
5492,2.8644425976022796,9.39245319366455,2.1332337856292725,3.0190882682800293
5512,2.441190420147399,,,
5513,,10.359710693359375,1.9297266006469727,2.6647465229034424
5532,3.2260014598107625,,2.126051187515259,
5533,,12.236764907836914,,2.252943754196167
5552,4.503488460064767,,1.3838485479354858,
5553,,13.867216110229492,,2.142810583114624
5572,6.835931361604387,16.024391174316406,3.780444383621216,1.357512354850769
5592,6.669738284442575,13.589488983154297,5.590460777282715,3.9863457679748535
5612,4.8503129366563655,,4.048594951629639,
5613,,11.166556358337402,,4.659116744995117
5632,3.864240290110639,13.400346755981445,1.3886369466781616,
5633,,,,0.040701430290937424
5652,6.822953629332925,,,
5653,,15.962142944335938,1.8842366933822632,-1.8555063009262085
5671,8.137278507810327,,,
5672,,14.441824913024902,2.7461493015289307,-5.913678169250488
5691,3.3247956292007106,,,
5692,,11.049241065979004,1.194706678390503,-2.3295583724975586
5711,3.1571829144156545,,,
5712,,7.546523571014404,0.9385270476341248,-1.5538369417190552
5732,4.89397552087521,,,
5733,,6.550535678863525,-1.2856862545013428,-0.9528923034667969
5751,4.276743723967239,8.29590892791748,-1.6903064250946045,
5752,,,,-0.38307225704193115
5771,3.638228777997921,9.639056205749512,-1.3192051649093628,-0.24420857429504395
5792,2.1777033919110447,,0.42856210470199585,
5793,,10.72841739654541,,-0.2777273952960968
5811,1.18324128495873,10.393229484558105,2.676717519760132,-0.12689268589019775
5830,2.6326001361810083,,,
5831,,7.879317760467529,3.35667085647583,-0.706289529800415
5851,5.56489922719302,4.522646903991699,3.0119056701660156,-1.0965443849563599
5871,5.826868816741933,4.003105163574219,2.4468741416931152,-0.4405331015586853
5890,4.683311320261056,,,
5891,,5.0014872550964355,1.3838485479354858,0.363918662071228
5910,3.9256684092535914,,,
5911,,5.880159378051758,0.40222588181495667,0.6488286852836609
5930,3.589966482361976,,,
5931,,7.340622425079346,-1.5155296325683594,0.6703764796257019
5950,3.1815214749501295,,-1.742978811264038,
5951,,8.71489429473877,,1.7357962131500244
5970,2.879874864879674,,,
5971,,8.14028549194336,-1.1803414821624756,1.656787633895874
5990,3.188871649526798,8.4108304977417,-1.0821791887283325,
5991,,,,2.6839001178741455
6010,3.478202244534069,,,
6011,,9.928754806518555,-0.33997663855552673,3.8546648025512695
6030,3.4879095513839307,,,
6031,,12.102689743041992,0.5913678407669067,3.205836057662964
6050,4.59678725956958,13.965378761291504,0.8834604024887085,2.5498247146606445
6069,5.417294549008101,,,
6070,,13.979743957519531,2.006340980529785,3.8977603912353516
6089,4.291547878559638,,,
6090,,12.030863761901855,-0.8810662031173706,4.218583583831787
6109,7.765566543573996,,0.24660277366638184,
6110,,13.196839332580566,,7.977479934692383
6129,4.286335841020463,,,
6130,,13.15613842010498,0.6392518281936646,3.737348794937134
6149,5.470820618048382,13.773842811584473,1.9321208000183105,-2.054224967956543
6171,6.594631045810758,14.058752059936523,-2.564189910888672,-2.9328970909118652
6190,5.821227381954932,,-3.667917013168335,
6191,,13.12261962890625,,-1.6735470294952393
6210,2.5701047123457585,10.565611839294434,-2.2457611560821533,0.27054479718208313
6228,3.167738298155033,,,
6229,,8.406042098999023,0.12210428714752197,-1.50355863571167
6249,3.5917638182869123,8.465897560119629,0.9409212470054626,-1.7980455160140991
6269,1.9297447041669782,10.26394271850586,0.4189853072166443,-0.4165911078453064
6289,0.831217623202,10.139444351196289,-0.22266076505184174,0.5793967843055725
6308,2.37739402173782,,,
6309,,7.422025203704834,-0.3974374830722809,0.8020575642585754
6328,4.002316995948668,,,
6329,,5.942408561706543,-0.9911994934082031,0.6105214357376099
6349,4.182969104569762,5.875370979309082,-1.1875240802764893,0.4812345504760742
6368,4.611347565212093,,-0.5219359993934631,
6369,,5.339069843292236,,-0.021547814831137657
6388,4.552692270759297,5.298368453979492,0.011971008032560349,0.06703764945268631
6408,3.8280219862175993,,,
6409,,5.978321552276611,0.5985504388809204,0.19153612852096558
6428,2.774826776407602,7.117961883544922,1.436521053314209,0.6727706789970398
6448,2.652469233155573,7.41484260559082,1.8339585065841675,0.3974374830722809
6468,3.490995677367271,6.3973069190979,1.4891934394836426,0.16759411990642548
6487,2.461667972720176,,,
6488,,7.398083209991455,1.0678139925003052,1.048660397529602
6508,2.3476194864399966,9.074024200439453,1.3623007535934448,2.58813214302063
6527,3.691828627869082,,,
6528,,11.769895553588867,2.3080103397369385,3.021482467651367
6547,5.355917123713173,,,
6548,,14.171279907226562,2.956839084625244,2.3319525718688965
6567,5.764557695716653,14.927847862243652,2.535459518432617,
6568,,,,2.075772762298584
6587,5.3184126319978535,,,
6588,,14.015656471252441,3.751713991165161,1.4676456451416016
6607,5.205315023044786,12.63899040222168,3.7421371936798096,3.7277719974517822
6627,5.855525753871128,10.790667533874512,2.6408045291900635,6.2201361656188965
6646,2.752101442064247,,,
6647,,10.845733642578125,2.3558945655822754,
6648,,,,2.9544448852539062
6666,4.691424138704446,,,
6667,,13.57512378692627,-0.45489832758903503,-1.3215993642807007
6686,8.908844365829404,,,
6687,,16.27338981628418,3.4763808250427246,-5.054159641265869
6706,6.930530793530761,,,
6707,,13.333309173583984,2.7916390895843506,-5.2672438621521
6726,2.888336925676786,,,
6727,,10.031704902648926,1.8291701078414917,-2.365471363067627
6746,3.6734452157079485,,,
6747,,7.15387487411499,0.9648633003234863,-2.051830768585205
6766,3.8824762394479544,7.908048152923584,-0.29209262132644653,
6767,,,,-2.1595699787139893
6786,3.574864263558639,7.73087739944458,-0.8643068075180054,
6787,,,,-0.6655880808830261
6805,2.1594200604342837,,,
6806,,8.877699851989746,-0.035913024097681046,-0.13407529890537262
6826,1.3995067834584103,11.015722274780273,1.5921441316604614,0.17956513166427612
6845,1.841014513856782,,,
6846,,10.912771224975586,2.9233202934265137,0.10534487664699554
6866,3.334386818032741,,,
6867,,6.754043102264404,2.762908697128296,-0.3471592366695404
6885,5.411427218433717,,,
6886,,,1.4532804489135742,
6887,,4.4077253341674805,,-0.47165772318840027
6906,5.739967550259091,,0.8595184087753296,
6907,,4.041412353515625,,-0.1149216815829277
6925,4.838767362271268,4.912901878356934,0.6799532771110535,0.3471592366695404
6945,4.194615027276137,5.863399982452393,-0.6272808313369751,0.40222588181495667
6965,2.574156602679489,8.183381080627441,-1.2090718746185303,1.0007762908935547
6984,1.8826590194510815,,,
6985,,8.89685344696045,-0.730231523513794,1.482010841369629
7005,2.531356244153409,9.311050415039062,-0.6033388376235962,2.7533318996429443
7025,4.03182813653541,9.423578262329102,-0.6631938815116882,4.46518611907959
7044,2.896475155919246,,,
7045,,10.290278434753418,0.1843535304069519,3.5673606395721436
7064,3.2109716557451926,,,
7065,,,-0.45010992884635925,
7066,,12.014103889465332,,2.868253707885742
7084,4.938559696100498,13.939042091369629,1.5155296325683594,
7085,,,,3.3710360527038574
7104,4.842842656952629,13.340492248535156,1.678335428237915,
7105,,,,4.062960147857666
7124,6.457658629911367,13.374011039733887,1.944091796875,6.268020153045654
7144,5.389916414876077,10.623072624206543,2.5737667083740234,6.165069580078125
7164,2.484359453260613,12.169727325439453,0.181959331035614,
7165,,,,1.41257905960083
7184,6.314389993981505,,,
7185,,14.94221305847168,-0.9600749015808105,-1.9081788063049316
7204,7.455439370177493,14.870387077331543,-3.265691041946411,-2.827552318572998
7224,4.5567398289404615,13.448230743408203,-2.2194249629974365,0.023942016065120697
7244,2.8715197188789503,9.23682975769043,-2.4899697303771973,-0.033518824726343155
7263,4.413346224033242,7.967903137207031,-1.0079588890075684,-2.432508945465088
7283,3.6819625916080376,,,
7284,,7.711723804473877,0.0933738648891449,-1.5873557329177856
7303,0.763838259627873,,,
7304,,10.089165687561035,-0.6105214357376099,0.8834604024887085
7323,0.4902017894113005,9.607931137084961,-0.35913026332855225,
7324,,,,0.9217676520347595
7343,1.9137432221355548,7.86734676361084,-0.21547815203666687,0.8882488012313843
7362,2.8606469499022182,6.9455790519714355,-0.2968810200691223,0.8595184087753296
7382,3.934587764062191,5.918466567993164,0.16759411990642548,0.12928688526153564
7402,5.3063755411454805,4.651933670043945,1.434126853942871,-0.22505496442317963
7422,5.623787643330373,4.355052947998047,1.5945383310317993,-0.3902548849582672
7442,3.3569344105112644,,1.5538369417190552,
7443,,6.581660270690918,,0.0694318488240242
7462,1.6960537603962609,,1.4413094520568848,
7463,,8.283937454223633,,1.158793568611145
7482,1.8004322168864173,,,
7483,,8.090007781982422,1.335964560508728,0.9217676520347595
7502,2.864149599473048,,,
7503,,7.0317702293396,1.6400281190872192,0.6871358752250671
7522,3.0969423719789955,,,
7523,,6.835445880889893,1.216254472732544,1.4508862495422363
7541,2.5849520831214052,,,
7542,,9.366117477416992,1.5825673341751099,2.9161376953125
7562,4.19261835921834,12.179304122924805,2.5689783096313477,3.3303346633911133
7582,5.321125702180256,13.989320755004883,3.162740468978882,2.5306711196899414
7601,4.889152914682106,,,
7602,,14.195221900939941,2.8850131034851074,0.31603461503982544
7621,5.783346919649346,,4.721365928649902,
7622,,13.965378761291504,,1.3551181554794312
7641,5.639716331436562,,,
7642,,13.050793647766113,3.84269380569458,4.086902141571045
7661,6.193808682160835,11.171344757080078,1.9847931861877441,
7662,,,,6.675034523010254
7681,2.689002304689009,,0.4189853072166443,
7682,,12.198457717895508,,0.0933738648891449
7701,6.524062294649162,,1.3263877630233765,
7702,,15.976508140563965,,-1.1180921792984009
7721,8.65181246605322,14.085088729858398,3.7397429943084717,
7722,,,,-6.485892295837402
7741,3.5969514601706445,11.008539199829102,2.10210919380188,-2.734178304672241
7761,2.748790474975745,,1.4844050407409668,
7762,,8.130708694458008,,-1.7334020137786865
7781,4.135021636057551,7.299921035766602,-0.5889736413955688,-1.7932571172714233
7800,3.86154496814625,,,
7801,,9.311050415039062,-1.4077905416488647,-1.3048399686813354
7821,2.8345163530896444,9.478644371032715,-0.7493851184844971,-0.26575639843940735
7840,1.086425890976118,9.919178009033203,1.094150185585022,
7841,,,,-0.19393034279346466
7860,1.5194199234453973,,,
7861,,10.424354553222656,2.7964274883270264,-0.4572925269603729
7880,2.7439269719151365,,,
7881,,8.063671112060547,3.4093432426452637,
7882,,,,-0.933738648891449
7900,4.50026786854648,,3.098097085952759,
7901,,5.638344764709473,,-0.7038952708244324
7920,5.938100684047612,3.861847400665283,1.9752163887023926,-0.4381389021873474
7940,5.126670193086031,4.565742492675781,1.3263877630233765,0.48602294921875
7960,3.5868448011367047,6.375759124755859,-0.09576806426048279,0.7852981686592102
7980,2.923912602633142,8.24084186553955,-1.4628572463989258,0.667982280254364
8000,3.14482041445103,8.772355079650879,-1.867477297782898,
8001,,,,1.6041151285171509
8020,3.300715808106816,,,
8021,,8.719682693481445,-1.721431016921997,2.322375535964966
8039,4.2981638691986115,,-1.802833914756775,
8040,,8.556877136230469,,3.7660791873931885
8060,4.363886204705295,9.361329078674316,-0.8906430602073669,4.654327869415283
8081,2.687598470613794,10.714052200317383,0.7924807667732239,
8082,,,,3.227383852005005
8100,3.093368044307684,12.071564674377441,1.3431471586227417,2.7509377002716064
8119,3.6209166317844845,,1.4676456451416016,
8120,,13.007698059082031,,2.2457611560821533
8139,3.917062793476708,,,
8140,,12.6365966796875,1.1061211824417114,3.6104562282562256
8159,7.146816649405163,,,
8160,,12.593501091003418,2.0925323963165283,7.4770917892456055
8179,3.7509473239878406,11.434707641601562,0.0694318488240242,4.5394062995910645
8198,6.461540885896891,,,
8199,,15.907075881958008,0.49799394607543945,-0.586579442024231
8218,6.632727956064545,,,
8219,,15.667655944824219,-2.1092917919158936,-0.5937620401382446
8238,6.684315431248276,,,
8239,,14.499285697937012,-3.864241600036621,-1.2258312702178955
8258,1.8557410753074832,,,
8259,,10.20648193359375,-1.53707754611969,0.44532153010368347
8278,4.920039727895728,,,
8279,,6.629544734954834,-0.8092401623725891,-2.2816741466522217
8298,5.558036470659372,,,
8299,,6.696582317352295,1.3670891523361206,-2.896984100341797
8318,3.442311889783581,8.87051773071289,1.8052281141281128,-1.278503656387329
8338,1.9619971827837737,11.45146656036377,-0.3687070608139038,0.4429273009300232
8357,0.6114707024886668,,,
8358,,10.065223693847656,-0.569819986820221,1.436521053314209
8378,2.31702362118972,7.673416614532471,-0.8092401623725891,0.5506663918495178
8398,3.342518659951873,6.7923502922058105,-1.2856862545013428,0.5219359993934631
8418,4.207251809518452,5.738901615142822,-0.8355764150619507,0.42377370595932007
8437,4.843071674718428,,-0.028730420395731926,
8438,,4.948814868927002,,0.5123591423034668
8457,4.534774567070066,,,
8458,,5.272032260894775,0.6655880808830261,0.19632454216480255
8477,3.298385201911012,,,
8478,,6.514622688293457,0.7254431247711182,0.20111294090747833
8497,2.7481200988600896,,,
8498,,7.084442615509033,0.8164227604866028,0.1173158809542656
8517,2.605105533475689,,,
8518,,7.352593421936035,1.4413094520568848,0.10773907601833344
8537,2.2262369553678045,9.174580574035645,2.4899697303771973,1.4987702369689941
8557,3.130722299907902,9.536105155944824,3.0310592651367188,2.389413356781006
8578,3.4653464450458475,8.71489429473877,3.450044631958008,2.1284453868865967
8602,2.6021801098026516,,,
8603,,9.8784761428833,2.9448680877685547,1.6950948238372803
8616,3.839708389892282,,,
8617,,12.808979034423828,2.4444799423217773,1.9967641830444336
8635,5.856231252992439,,,
8636,,15.473725318908691,1.9823989868164062,0.8619126081466675
8655,6.670279604700451,15.715539932250977,2.715024709701538,2.6360161304473877
8676,5.736744071679102,13.187262535095215,3.201047658920288,4.4532151222229
8695,6.113761400373207,10.005369186401367,2.209848165512085,6.732495307922363
8715,1.2835473189776163,10.453084945678711,1.800439715385437,1.623268723487854
8735,5.889353971689715,,,
8736,,15.286977767944336,0.48602294921875,-0.9624691009521484
8755,8.797084013114178,,,
8756,,15.076288223266602,3.6080620288848877,-5.9974751472473145
8795,2.8316778133443123,,,
8796,,9.287108421325684,1.1348515748977661,-2.1308395862579346
8834,4.104844761839213,,,
8835,,6.907271862030029,-0.10534487664699554,-1.525106430053711
8874,1.6991287382993012,,,
8875,,8.78193187713623,1.2545616626739502,-0.5051765441894531
17192,2.5029846494953043,10.527304649353027,3.9049429893493652,0.040701430290937424
17231,5.188133660646891,,,
17232,,4.766855716705322,2.054224967956543,-0.6943184733390808
17271,5.3222434059169235,4.414907932281494,0.7733271718025208,0.3495534360408783
17311,2.7565648009434747,7.752425193786621,-0.9097966551780701,1.41257905960083
17351,2.6646448656681883,8.753201484680176,-1.338358759880066,1.9584569931030273
17391,4.195575272555097,9.607931137084961,-0.5363011956214905,4.639962673187256
17431,3.4004848583295466,12.746729850769043,0.5219359993934631,2.2864625453948975
17470,3.8600154453423174,,,
17471,,12.385205268859863,1.1037269830703735,3.6535518169403076
17510,4.146613860657803,,,
17511,,12.021286964416504,1.6615760326385498,4.4077253341674805
17550,6.390196694942091,,,
17551,,15.658079147338867,-0.5674257874488831,-1.1563993692398071
17590,3.9790061532179353,11.281478881835938,-3.205836057662964,-0.26815059781074524
17629,5.1919042435972,,,
17630,,7.644686222076416,1.7908629179000854,-3.0119056701660156
17669,1.2828902933041197,10.591948509216309,-0.4189853072166443,
17670,,,,0.47165772318840027
17709,3.0672945133144114,7.8098859786987305,-2.3032219409942627,1.824381709098816
17749,4.040304498433685,5.805939197540283,-0.5746083855628967,0.7158663272857666
17789,5.213561442588877,4.802768707275391,0.8331822156906128,-0.6200982332229614
17829,2.8114339715543584,7.12035608291626,1.1348515748977661,
17830,,,,0.033518824726343155
17869,2.7715356457775226,,,
17870,,9.797073364257812,3.0621838569641113,1.9536685943603516
17909,3.3666819040186557,8.868123054504395,3.4380736351013184,2.365471363067627
17948,3.531806429344325,,,
17949,,12.713211059570312,1.8626888990402222,2.161964178085327
17988,4.8406151256128105,,,
17989,,13.951013565063477,2.140416383743286,2.5450363159179688
18028,5.143615409415878,,,
18029,,8.78193187713623,2.8347349166870117,5.78678560256958
18068,6.943667308133013,,0.4812345504760742,
18069,,15.928624153137207,,-2.0398597717285156
18107,5.310283422862468,13.266271591186523,0.9552865028381348,-3.2345664501190186
18147,3.5764462726684685,7.319074630737305,-0.19632454216480255,-1.1683704853057861
18186,2.63326289006266,,,
18187,,8.681375503540039,-0.33039984107017517,-0.43095630407333374
18226,3.5361423866291957,12.696451187133789,3.49314022064209,0.5315127968788147
18266,3.8977243386547493,6.00226354598999,2.2146365642547607,-0.3208230137825012
18306,6.07855458445358,3.732560396194458,0.7565677165985107,-0.1628057211637497
18346,4.187525734893519,6.01423454284668,-0.9457096457481384,1.2401964664459229
18385,2.095923249557552,,,
18386,,8.772355079650879,-0.9840168952941895,1.4077905416488647
18427,3.4720161800710683,9.253589630126953,0.15562310814857483,4.247313976287842
18465,3.260463011455929,12.653355598449707,0.31842881441116333,
18466,,,,2.2864625453948975
18505,3.8931143889418074,12.617443084716797,1.3479355573654175,3.533841609954834
18544,4.342049684427406,,,
18545,,11.444284439086914,0.7350199222564697,5.243301868438721
18584,6.526825058404552,15.993267059326172,0.13168109953403473,
18585,,,,-0.4572925269603729
18624,4.375594834353262,12.588712692260742,-2.6815059185028076,-0.4429273009300232
18664,5.453660124397321,7.280767440795898,1.3120225667953491,-3.098097085952759
18704,1.861325435096102,10.931924819946289,0.15083470940589905,0.1628057211637497
18743,2.5090442140164457,,,
18744,,7.82185697555542,-1.7477672100067139,1.534683346748352
18783,3.762879062960735,,,
18784,,6.165069580078125,-0.9648633003234863,0.7589619159698486
18823,4.985716636210578,4.9583916664123535,0.19871874153614044,-0.3064578175544739
18863,3.092272164687793,6.720524311065674,0.790086567401886,0.42856210470199585
18903,2.7649207646362663,8.662221908569336,2.918531894683838,1.5897499322891235
18942,3.5011365952353377,,,
18943,,8.662221908569336,3.335123062133789,2.580949544906616
18983,2.876716764624573,11.999738693237305,2.011129379272461,1.821987509727478
19023,6.243599628092594,15.624560356140137,2.389413356781006,1.8267759084701538
19062,5.456484746088983,,,
19063,,9.02135181427002,2.3774423599243164,6.189011573791504
19142,7.844782666319515,15.121777534484863,2.1045033931732178,-4.821922302246094
19182,3.8621851771175075,7.637503623962402,-0.3998316824436188,-1.8315643072128296
19221,3.6334554780033184,7.922413349151611,-0.9840168952941895,-0.8236053586006165
19261,2.8412622322460304,11.657367706298828,3.5625722408294678,-0.12210428714752197
19301,2.262300986288844,7.951143741607666,2.4851813316345215,-0.3232172429561615
19341,5.956391166943503,3.883395195007324,0.21787235140800476,0.07422025501728058
19381,4.9779688885499365,,,
19382,,5.013458251953125,-0.6871358752250671,0.7206547260284424
19420,1.5924608589284819,,,
19421,,9.038111686706543,-0.47644615173339844,1.6950948238372803
19461,3.5163501585016848,8.829815864562988,-1.1348515748977661,3.801992416381836
19501,2.770066224418614,10.127472877502441,1.0031704902648926,3.7229835987091064
19540,3.5285565391963294,,,
19541,,13.199234008789062,0.14604631066322327,0.47884035110473633
19580,5.986673496358554,,,
19581,,10.357316970825195,2.1954829692840576,7.017405033111572
19619,7.166710018056413,15.64371395111084,2.4205379486083984,
19620,,,,-2.1571757793426514
28210,2.691335380961002,9.80904483795166,-1.015141487121582,3.5697548389434814
28249,2.4489621358041735,,,
28250,,10.153809547424316,0.507570743560791,3.6535518169403076
28289,3.215249982640028,12.36365795135498,2.2146365642547607,1.4652514457702637
28329,5.957023245383966,12.00452709197998,-0.047884032130241394,7.026981830596924
28369,3.6764199556342234,12.871228218078613,1.501164436340332,0.40222588181495667
28409,8.721558914826245,17.43936538696289,-1.6328455209732056,-2.10210919380188
28448,3.5542480197076434,,,
28449,,8.063671112060547,-2.2146365642547607,-0.8068459630012512
28488,5.001080777662179,,,
28489,,8.145073890686035,2.5665841102600098,-1.987187385559082
28528,1.284431972307446,10.790667533874512,-0.4668693244457245,1.0845733880996704
28568,2.5757724084954035,,,
28569,,7.65186882019043,-1.802833914756775,1.5083470344543457
28608,4.363960725476454,,,
28609,,5.525817394256592,-0.7924807667732239,0.4596867263317108
28648,5.120807887056269,,-0.19153612852096558,
28649,,4.9152960777282715,,-0.4836287498474121
28687,2.0395853241964983,,,
28688,,8.403648376464844,1.7501614093780518,0.8212111592292786
28727,3.120812013058398,9.423578262329102,3.2345664501190186,
28728,,,,1.8746598958969116
28767,2.79066681867922,7.989450931549072,2.3798365592956543,1.6615760326385498
28807,4.836319077925974,14.068328857421875,2.3343467712402344,1.8411411046981812
28846,4.180205867388591,,,
28847,,12.303802490234375,2.5977089405059814,3.3518824577331543
28886,2.1959517556190966,,,
28887,,9.50498104095459,2.473210334777832,2.434903144836426
28926,9.344577510257745,,2.470816135406494,
28927,,17.049110412597656,,-4.876988887786865
28966,3.286433458108159,11.453861236572266,1.4891934394836426,-2.1954829692840576
29006,4.309233824566167,7.362170219421387,-1.5945383310317993,
29007,,,,-0.7829039692878723
29046,1.3981084170016709,9.124302864074707,0.8475474119186401,-0.19871874153614044
29086,4.075419613817272,12.425907135009766,4.527435302734375,
29087,,,,1.0821791887283325
65190,2.0398178163221834,,,
65191,,7.7763671875,1.9704279899597168,0.3902548849582672
65230,3.014904983819955,9.856928825378418,1.8363527059555054,3.6511576175689697
65274,4.471808180719671,13.417106628417969,3.1962592601776123,2.1571757793426514
65290,4.8378717008612515,14.235923767089844,2.3558945655822754,1.8531121015548706
65310,3.4950723018998926,12.682085990905762,2.980781078338623,
65311,,,,1.2210428714752197
65330,3.021678166256242,10.78348445892334,2.5522189140319824,3.3303346633911133
65350,4.393214212364639,9.567230224609375,1.5514427423477173,5.458779811859131
65371,2.4724342764825677,,0.9457096457481384,
65372,,9.567230224609375,,3.5865142345428467
65389,4.3541727507090915,,,
65390,,12.327744483947754,-0.7398083209991455,-1.3862427473068237
65409,10.99034909055778,18.183961868286133,2.8371291160583496,-5.916072368621826
65429,9.335564846119047,15.301342964172363,1.2521674633026123,-6.66785192489624
65449,3.9712816709144683,11.058817863464355,2.22660756111145,-3.090914487838745
65469,3.1042528759209636,8.142680168151855,0.8810662031173706,-1.9033904075622559
65489,3.4036936835632434,9.490615844726562,-0.047884032130241394,-1.9823989868164062
65509,2.4918727377026624,9.828198432922363,0.023942016065120697,-0.4908113479614258
65528,1.6909226922264737,,,
65529,,11.21444034576416,2.3127987384796143,0.49320554733276367
65548,3.2310194217307133,,,
65549,,12.504915237426758,3.471592426300049,0.43095630407333374
65568,1.666805960874287,,3.3662476539611816,
65569,,10.065223693847656,,-0.5147533416748047
65588,3.809227210941883,5.925649166107178,2.2888567447662354,-0.3447650372982025
65608,6.398721877265619,3.423708438873291,0.6392518281936646,-0.40222588181495667
65628,7.6319468387055815,2.296039342880249,-0.1843535304069519,-0.17717093229293823
65648,7.698438600044954,2.209848165512085,-0.08858546614646912,-0.22744916379451752
65668,6.561066679876315,3.471592426300049,-0.4620809257030487,-0.14365209639072418
65688,3.19530876924255,7.354987621307373,-0.8954314589500427,1.0534487962722778
65708,3.3850897684970915,11.24795913696289,-0.5027823448181152,3.1316158771514893
65728,4.846638661075855,12.385205268859863,-0.7038952708244324,4.132391929626465
65748,4.003222121431138,,,
65749,,10.60152530670166,-0.811634361743927,3.974374771118164
65768,2.766546494581891,9.909601211547852,0.5003881454467773,3.4165258407592773
65788,3.4059747707218775,,,
65789,,11.611878395080566,0.16998831927776337,3.5960910320281982
65808,3.519886739816043,12.87362289428711,0.6655880808830261,-0.5650315880775452
65828,4.823750214469215,,2.3367409706115723,
65829,,12.2990140914917,,4.797980308532715
65848,5.829532729409941,10.369287490844727,3.201047658920288,6.478709697723389
65867,3.4775101302415523,,,
65868,,,2.2218191623687744,
65869,,12.823344230651855,,2.013523578643799
65888,8.040902004222158,16.807296752929688,1.7980455160140991,-2.2361843585968018
65907,9.01767774778466,,,
65908,,17.07544708251953,-3.0813376903533936,-2.3582887649536133
65929,8.690497670206199,16.745046615600586,-4.474762916564941,-0.011971008032560349
65948,2.8532081349556244,,-1.4844050407409668,
65949,,11.15697956085205,,-0.31603461503982544
65968,4.868285617056909,8.17141056060791,0.7445967197418213,
65969,,,,-2.889801502227783
65988,6.577494901439818,6.926425457000732,1.9369091987609863,-3.9863457679748535
66008,1.5108248016711283,9.646238327026367,0.7038952708244324,0.19871874153614044
66028,2.963686188099746,,-1.6831238269805908,
66029,,11.42752456665039,,3.064578056335449
66048,3.2167807175045797,8.81784439086914,-2.920926094055176,1.680729627609253
66068,3.9078938191649573,,-2.6431987285614014,
66069,,7.113173484802246,,0.7613561153411865
66088,4.508891540116287,5.635950565338135,-1.2832920551300049,0.1173158809542656
66108,5.440047796263813,4.395754337310791,0.586579442024231,0.016759412363171577
66127,6.970142447768732,3.136404275894165,1.7310078144073486,-0.9481038451194763
66147,5.851687339602056,,,
66148,,4.424484729766846,2.691082715988159,-0.5291185975074768
66166,3.794430169307826,,,
66167,,6.349422931671143,2.315192937850952,0.07182604819536209
66188,2.397137416912669,7.726089000701904,2.0614075660705566,0.3663128614425659
66207,1.7657010222416105,,,
66208,,8.9064302444458,2.070984363555908,1.400607943534851
66229,2.66775909538388,10.716446876525879,2.255337953567505,2.4205379486083984
66246,3.094750753051163,,,
66247,,,2.425326347351074,
66248,,9.435548782348633,,3.0358476638793945
66265,2.5932980798647645,,1.9919757843017578,
66266,,8.336610794067383,,2.3535003662109375
66286,2.328754109631371,9.907206535339355,1.8052281141281128,2.652775526046753
66306,2.9645114556662397,11.638214111328125,0.7661445140838623,2.7222073078155518
66326,3.6979565828703214,13.431471824645996,1.314416766166687,0.31842881441116333
66346,5.293573751747069,13.759477615356445,3.1292216777801514,3.1507694721221924
66366,5.8054139618386,11.439496040344238,3.141192674636841,5.827486991882324
66386,2.2932065356302673,,,
66387,,10.488997459411621,2.9951462745666504,1.9081788063049316
66406,3.660682795053537,12.284648895263672,0.9672574996948242,-1.8339585065841675
66426,10.378643820778983,,3.8738183975219727,
66427,,17.092205047607422,,-6.27280855178833
66445,7.9649079279537975,,,
66446,,15.713146209716797,1.3024457693099976,-4.778826713562012
66466,3.718844372489507,11.75792407989502,0.7948749661445618,-2.5546131134033203
66486,3.746763613002068,8.219294548034668,-1.2114660739898682,-0.7445967197418213
66506,4.688131671306266,9.93593692779541,-2.427720546722412,0.272938996553421
66526,4.549841473511141,10.089165687561035,-2.2697031497955322,0.26815059781074524
66545,2.7573971530137333,,,
66546,,11.190498352050781,0.002394201699644327,-0.2585737705230713
66566,2.0461074904380654,11.192893028259277,3.1723172664642334,-0.22266076505184174
66585,3.2263547077650006,,,
66586,,9.44752025604248,4.809951305389404,-0.8619126081466675
66605,4.851959163157422,,4.460397720336914,
66606,,5.995080947875977,,-1.0845733880996704
66625,6.238154974359875,,,
66626,,3.8307228088378906,3.0119056701660156,-1.0869675874710083
66645,6.904693013741717,2.8802247047424316,1.699883222579956,
66646,,,,-0.5817909836769104
66665,7.427252369402097,2.2840683460235596,0.8068459630012512,0.2944868206977844
66684,5.6276405070866025,4.376600742340088,-0.5051765441894531,0.7924807667732239
66703,3.783405414740482,7.331045627593994,-1.6184803247451782,
66704,,,,1.3718775510787964
66724,3.522210628625486,10.134655952453613,-1.8914192914962769,2.296039342880249
66746,3.6505620027320473,10.213664054870605,-1.4987702369689941,2.9951462745666504
66762,3.7803222526959943,,-1.1563993692398071,
66763,,9.576807022094727,,3.5266590118408203
66782,3.56103271249959,9.253589630126953,-0.6105214357376099,3.667917013168335
66802,2.6900609256977925,,0.9624691009521484,
66803,,10.824186325073242,,3.0837318897247314
66822,2.4384337372966534,11.762712478637695,1.1228805780410767,2.0398597717285156
66842,3.5918656426090974,13.254301071166992,1.6615760326385498,0.9169792532920837
66862,6.049024254166141,11.343728065490723,0.9792284965515137,6.665457725524902
66882,6.619799606194426,12.054805755615234,1.7932571172714233,7.1490864753723145
66901,3.141738921800917,,,
66902,,12.373234748840332,2.2649147510528564,2.118868589401245
66921,6.210123644594554,,,
66922,,14.034810066223145,0.6655880808830261,-3.1866824626922607
66941,8.59894463029521,17.56865119934082,-2.365471363067627,-0.7469909191131592
66961,7.256293623445664,15.471331596374512,-2.889801502227783,-1.8722656965255737
66982,3.4135141172316894,9.90241813659668,-2.5330653190612793,-0.7565677165985107
67002,4.089773328697686,8.14028549194336,-0.035913024097681046,-2.3271639347076416
67022,4.5052607832779,9.002198219299316,1.8698714971542358,-2.6192567348480225
67042,2.197370765713638,10.249577522277832,1.659181833267212,0.08619125932455063
67061,1.7388393234904915,,,
67062,,11.288661003112793,-0.031124621629714966,2.0590133666992188
67081,1.8986956259982632,,-1.4987702369689941,
67082,,8.695740699768066,,1.601720929145813
67101,3.7719387450437614,6.976703643798828,-2.3582887649536133,0.8307880163192749
67121,3.6111127625160027,7.158663272857666,-2.1715409755706787,0.4141969084739685
67141,4.690322636485274,5.372588634490967,-1.1300631761550903,0.16759411990642548
67161,5.351654809308804,4.565742492675781,-0.5626373887062073,
67162,,,,0.0454898327589035
67181,4.915717448185514,5.008669853210449,0.3758896589279175,-0.3758896589279175
67201,3.948570432187677,,,
67202,,6.0405707359313965,1.534683346748352,0.07182604819536209
67221,3.225552380000661,,2.4875755310058594,
67222,,7.326257228851318,,0.16998831927776337
67242,3.4685018639693546,7.692570209503174,3.2537200450897217,0.395043283700943
67260,3.037576267870468,8.066065788269043,2.980781078338623,
67261,,,,0.9911994934082031
67280,3.0939360283302406,,,
67281,,8.920795440673828,2.9472622871398926,2.1475989818573
67302,3.4358061345112754,9.792284965515137,3.1699230670928955,2.6024973392486572
67321,3.7578970092660837,,,
67322,,12.231976509094238,2.652775526046753,2.274491548538208
67341,5.126572530516323,,1.170764684677124,
67342,,14.156914710998535,,2.8562827110290527
67361,4.68308589367618,14.216769218444824,2.0446481704711914,0.5554547905921936
67380,4.278594369824527,,,
67381,,11.343728065490723,3.804386615753174,
67382,,,,2.7916390895843506
67401,5.46363565262891,,,
67402,,10.366893768310547,3.1723172664642334,5.5114521980285645
67422,1.7113957597001286,11.283872604370117,1.4844050407409668,0.33758243918418884
67441,6.432623636634273,15.682021141052246,-0.12928688526153564,-1.623268723487854
67461,10.422520287252196,17.657238006591797,2.978386878967285,-6.100425720214844
67481,6.094877011667546,14.262259483337402,2.3965959548950195,-3.5434184074401855
67501,2.4357865987238507,9.334992408752441,1.4772224426269531,-2.0638017654418945
67520,4.252901096882946,,-1.3192051649093628,
67521,,7.096413612365723,,-0.9217676520347595
67540,4.950180574456508,,,
67541,,8.882488250732422,-2.827552318572998,-0.6631938815116882
67561,3.5580511590239863,9.44752025604248,-1.5705963373184204,-0.011971008032560349
67580,0.9539874817848616,,1.4676456451416016,
67581,,10.342951774597168,,-0.14604631066322327
67600,2.674087768164258,11.310209274291992,3.8115692138671875,-0.3423708379268646
67620,3.1444114520076094,9.624691009521484,4.685452938079834,-0.667982280254364
67640,4.035153413902682,6.335057735443115,3.6152446269989014,-0.6320692300796509
67660,5.685818266345676,4.199429988861084,2.3104045391082764,-0.751779317855835
67679,6.010374953876142,,,
67680,,3.6774938106536865,1.6663644313812256,0.35434186458587646
67700,5.935486140792434,3.869029998779297,0.2082955539226532,0.4836287498474121
67719,4.518294129651258,,,
67720,,5.8657941818237305,-1.1085153818130493,0.16759411990642548
67740,2.9822770179089417,7.91283655166626,-1.256955862045288,0.9888052940368652
67759,2.5758334986739,,,
67760,,9.440337181091309,-0.768538773059845,2.279279947280884
67777,3.5651658106012514,,-0.9481038451194763,
67778,,10.347740173339844,,3.3063924312591553
67797,4.527066529206665,9.17697525024414,-1.7118542194366455,4.003105163574219
67817,3.9100635681448446,,,
67818,,8.700529098510742,-0.395043283700943,4.010287761688232
67837,2.8190646382932565,9.576807022094727,1.6089035272598267,3.35667085647583
67857,2.346182006436035,12.035652160644531,0.8403648138046265,0.19393034279346466
67877,4.269650749914461,,,
67878,,13.792996406555176,1.0869675874710083,-0.6584054827690125
67897,5.460225464074746,11.207258224487305,0.7326257228851318,5.944802761077881
67917,6.468475188531563,11.434707641601562,1.0845733880996704,
67918,,,,7.101202011108398
67936,4.396218859985542,13.797784805297852,2.31758713722229,1.6735470294952393
67956,7.50723629585201,16.429012298583984,1.5969325304031372,-2.2457611560821533
67976,7.518746915263291,16.28296661376953,-2.097320795059204,-1.6400281190872192
67996,6.148449288227264,,-3.667917013168335,
67997,,14.159308433532715,,-0.47405192255973816
68016,3.4914055616643145,9.557653427124023,-2.4157495498657227,
68017,,,,-1.158793568611145
68036,3.833326643785915,7.807491779327393,0.4213795065879822,
68037,,,,-1.9273324012756348
68056,5.3117668094696695,8.83699893951416,2.212242364883423,-3.3854012489318848
68076,2.7885810158629516,10.014945983886719,1.7717092037200928,-0.811634361743927
68096,2.3489235299542544,11.628637313842773,-0.828393816947937,2.363077163696289
68116,2.484458490084436,,-1.9776105880737305,
68117,,9.11233139038086,,2.5258827209472656
68137,3.663561561030796,7.275979042053223,-2.631227731704712,1.4221558570861816
68156,3.4758743119337385,6.876147270202637,-1.7477672100067139,0.45010992884635925
68176,4.839179460628925,4.999093055725098,-0.35913026332855225,0.2825157940387726
68195,5.680220756001836,,,
68196,,4.247313976287842,0.05027823522686958,-0.4668693244457245
68216,5.193511421241737,,,
68217,,4.8722004890441895,0.5937620401382446,-0.9289502501487732
68236,4.092856273208788,5.916072368621826,1.4508862495422363,-0.26096799969673157
68256,3.238446165885105,6.900089263916016,1.9177556037902832,0.15801730751991272
68277,2.8013728114267606,9.045293807983398,3.117250680923462,1.1803414821624756
68296,3.2653652252108207,10.402806282043457,3.4093432426452637,1.7381904125213623
68317,3.933625994856047,8.492233276367188,3.4620156288146973,2.6575639247894287
68337,3.832232330988281,7.671022415161133,3.2393548488616943,2.2194249629974365
68357,2.647400599586769,10.204087257385254,2.607285737991333,2.1356279850006104
68376,4.188188183160872,,,
68377,,13.223176002502441,1.0773907899856567,2.652775526046753
68396,4.917731972494628,,0.9576807022094727,
68397,,14.681244850158691,,0.5219359993934631
68415,4.7701950423633095,,,
68416,,12.928689002990723,3.246537446975708,2.806004285812378
68436,5.348861302204854,10.687716484069824,3.3207578659057617,5.17626428604126
68456,1.8890177302581075,,,
68457,,10.56800651550293,2.207453966140747,1.7190368175506592
68475,4.715132583582536,,,
68476,,,-0.021547814831137657,
68477,,14.053963661193848,,-1.0007762908935547
68494,10.48357814711187,,,
68495,,17.786523818969727,2.626439332962036,-6.1315507888793945
68515,7.69099061694408,,,
68516,,15.758635520935059,1.434126853942871,-4.436455726623535
68535,2.7827611525444644,,,
68536,,10.232817649841309,1.1061211824417114,-2.403778553009033
68556,3.9000265365089035,7.6782050132751465,-1.1492167711257935,-1.2737152576446533
68575,3.9807885877237146,,,
68576,,8.11634349822998,-1.680729627609253,-0.31842881441116333
68595,3.099228756856954,8.89685344696045,-0.9864110946655273,-0.24420857429504395
68616,1.6203335001953976,10.831368446350098,1.0773907899856567,-0.35913026332855225
68635,2.7574696098029468,,3.5242648124694824,
68636,,11.745953559875488,,-0.272938996553421
68656,2.9851247434892723,10.153809547424316,4.558559894561768,-0.4213795065879822
68676,4.201246103990332,6.287173748016357,3.7229835987091064,-0.8882488012313843
68713,6.552820824224826,,1.534683346748352,
68714,,3.2178070545196533,,-0.3447650372982025
68753,5.507005564780859,4.73573112487793,-1.1875240802764893,0.3471592366695404
68908,2.930568226992274,9.442731857299805,-1.4724340438842773,2.1475989818573
68911,4.04638315400659,,,
68912,,13.723564147949219,1.6974890232086182,0.2298433631658554
68951,4.8541190127324345,10.129867553710938,1.5825673341751099,
68952,,,,5.252878665924072
68991,7.491177774275603,,,
68992,,16.88869857788086,1.4844050407409668,-1.8052281141281128
69031,6.957512386419282,14.573505401611328,-4.697423934936523,-0.33758243918418884
69071,4.387803009090316,8.02536392211914,1.5825673341751099,-2.920926094055176
69112,1.9650023985986411,,,
69113,,10.26394271850586,1.5083470344543457,-0.363918662071228
69150,3.024219342849819,,,
69151,,9.014169692993164,-2.535459518432617,1.987187385559082
69191,4.522655043846466,,,
69192,,5.884947776794434,-2.054224967956543,0.4357447028160095
69232,5.58921246326105,4.2544965744018555,0.4357447028160095,
69233,,,,-0.363918662071228
69272,4.19891009948529,,1.6160861253738403,
69273,,5.796362400054932,,-0.4620809257030487
69311,2.5282209191910727,,,
69312,,7.807491779327393,2.032677173614502,0.6224924325942993
69352,4.256801324166743,10.357316970825195,3.598485231399536,2.9257144927978516
69391,2.503026656029835,10.20887565612793,2.161964178085327,2.049436569213867
69430,4.645420666258752,,,
69431,,13.986926078796387,1.886630892753601,1.6950948238372803
69470,5.382045652470206,,,
69471,,10.323798179626465,3.177105665206909,5.331887245178223
69511,4.402741462458806,12.84968090057373,0.586579442024231,-2.628833532333374
69550,7.730985881515715,,,
69551,,15.737088203430176,1.2042834758758545,-4.817133903503418
69590,3.4700797341720016,8.075642585754395,-1.3215993642807007,-0.6177040338516235
69628,3.622535657160926,,-1.601720929145813,
69629,,8.760383605957031,,-0.7805097699165344
69668,2.6956271222904657,11.702857971191406,3.4308910369873047,-0.2082955539226532
69708,3.6188033184017323,,,
69709,,6.651092529296875,3.1459810733795166,-0.8068459630012512
69748,6.288976064526366,3.464409828186035,1.1180921792984009,-0.2753331959247589
69787,4.937218573553534,5.035006046295166,-0.24420857429504395,-0.2849099934101105
69807,3.045885913428083,7.445967197418213,-0.9457096457481384,1.0103530883789062
69826,3.1537244909270137,,,
69827,,9.344569206237793,-1.3694833517074585,2.5713725090026855
69846,3.9000998948826266,,,
69847,,10.216058731079102,-1.5131354331970215,3.5386300086975098
69866,3.9849613730593916,,,
69867,,9.030928611755371,-1.479616641998291,3.7876269817352295
69886,3.147716051462903,9.141061782836914,0.19871874153614044,3.691859006881714
69906,3.3551278168709913,,2.4396915435791016,
69907,,11.346121788024902,,3.0095114707946777
69926,3.599284148569145,12.945448875427246,2.1715409755706787,0.5530605912208557
69946,3.6098699849563243,,2.0254945755004883,
69947,,13.077129364013672,,0.7565677165985107
69966,6.946646769245571,,,
69967,,10.012551307678223,0.2944868206977844,7.915230751037598
69988,5.571720838740792,11.712434768676758,0.9385270476341248,6.4595561027526855
70006,5.668643083163454,,,
70007,,14.753070831298828,1.8411411046981812,-0.8475474119186401
70026,7.482464444948728,,,
70027,,16.433799743652344,-0.7829039692878723,-1.7357962131500244
70046,9.253327054874514,,-3.620033025741577,
70047,,17.12811851501465,,-2.6431987285614014
70066,5.317671648347946,,,
70067,,13.721169471740723,-2.9089550971984863,-0.4165911078453064
70086,3.19303712297956,,,
70087,,8.762778282165527,-0.6368576288223267,-1.436521053314209
70106,5.252716633152624,,1.7094600200653076,
70107,,9.114726066589355,,-3.2321722507476807
70126,4.438341947387938,,,
70127,,9.758766174316406,2.650381326675415,-1.7812861204147339
70146,2.0346531456630976,,0.5339069962501526,
70147,,10.857705116271973,,0.047884032130241394
70167,0.8948861296902526,9.646238327026367,-0.9361328482627869,1.9536685943603516
70185,3.0888531395408503,,,
70186,,7.177816867828369,-1.867477297782898,1.2066776752471924
70205,3.9403442524814967,,,
70206,,6.627150535583496,-2.2409727573394775,0.3495534360408783
70225,4.06346940432108,,,
70226,,6.3733649253845215,-2.0207061767578125,0.35434186458587646
70246,5.3775946099024745,,,
70247,,4.730942726135254,-1.3335703611373901,-0.1604115068912506
70267,5.370227380410403,4.596867084503174,-0.31364041566848755,-0.4405331015586853
70285,4.986696473982832,,,
70286,,,0.8188169598579407,
70287,,4.994304656982422,,-0.5363011956214905
70306,3.8507335459439296,,,
70307,,6.167463779449463,1.4676456451416016,
70308,,,,-0.0071826050989329815
70325,2.586398449523442,,,
70326,,,2.166752576828003,
70327,,7.955932140350342,,0.6488286852836609
70346,2.7534429498639548,9.351752281188965,2.892195701599121,1.434126853942871
70366,3.4415606010540536,10.096348762512207,3.2417490482330322,2.2649147510528564
70385,3.6623210876302705,,,
70386,,8.549694061279297,3.248931646347046,2.3702597618103027
70405,2.5835468962798216,,,
70406,,9.35893440246582,2.695871114730835,1.625662922859192
70425,4.147763874657296,,,
70426,,12.813767433166504,1.9919757843017578,2.829946517944336
70445,5.885907052014258,,,
70446,,15.255853652954102,1.2832920551300049,2.3798365592956543
70465,4.916297683232399,,,
70466,,13.816938400268555,2.387019157409668,2.4875755310058594
70484,4.466930525848136,,3.1292216777801514,
70485,,11.025299072265625,,4.082113742828369
70505,4.504469241631439,8.918401718139648,2.1763293743133545,5.037400245666504
70524,2.1568133958825,,,
70525,,9.75397777557373,2.650381326675415,2.054224967956543
70544,4.854272647513875,13.711592674255371,0.21547815203666687,-1.8507179021835327
70564,10.204649176092675,,,
70565,,16.869544982910156,3.1938650608062744,-6.358999729156494
70585,7.2790607877767055,14.27662467956543,0.5626373887062073,-5.190629482269287
70605,3.903340102683131,10.900800704956055,1.1444283723831177,-3.3063924312591553
70625,2.1561555703536084,8.83939266204834,0.019153613597154617,-0.6631938815116882
70644,2.9631592157943474,,,
70645,,9.440337181091309,-0.8786720037460327,-0.7134721279144287
70664,2.2764498230456307,,,
70665,,10.010157585144043,-0.26096799969673157,-0.2298433631658554
70684,1.8727390008434575,11.487380027770996,1.9369091987609863,0.1867477297782898
70704,4.115912629129763,,3.5410242080688477,
70705,,13.33809757232666,,-0.004788403399288654
70724,2.4525158362698782,,,
70725,,9.84256362915039,3.737348794937134,-0.828393816947937
70744,4.4412967396624525,,2.695871114730835,
70745,,5.521028995513916,,-0.4692635238170624
70765,6.840621999824462,3.1459810733795166,1.4317326545715332,-1.2641384601593018
70783,7.767063920935909,,,
70784,,2.1571757793426514,0.667982280254364,-0.9457096457481384
70804,7.116909050964279,2.6455929279327393,0.6177040338516235,0.05027823522686958
70824,5.403296043993711,4.347870349884033,0.5650315880775452,0.4165911078453064
70843,2.923269010711189,7.29034423828125,-0.507570743560791,
70844,,,,1.036689281463623
70863,2.948050362259018,10.122684478759766,-1.170764684677124,
70864,,,,2.4660277366638184
70884,3.5683807556146547,10.632649421691895,-1.7932571172714233,2.5115175247192383
70904,4.530126392883321,9.679757118225098,-1.4963760375976562,4.216189384460449
70923,3.4154628090423076,,0.7876923680305481,
70924,,9.971850395202637,,3.885789394378662
70943,3.775390625,,,
70944,,12.11705493927002,0.8786720037460327,3.5051112174987793
70962,2.480051465115755,,,
70963,,12.188880920410156,0.9457096457481384,0.17238251864910126
70983,3.271942015565474,,,
70984,,11.96861457824707,0.4884171485900879,3.0358476638793945
71003,6.202471259041696,,,
71004,,11.245565414428711,0.7254431247711182,6.8162922859191895
71022,4.791631062693245,,,
71023,,11.599906921386719,2.9903578758239746,4.786009311676025
71040,6.32761137961904,,,
71041,,15.126565933227539,3.0406360626220703,-1.3096283674240112
71060,6.976484582344144,,-0.3734954595565796,
71061,,16.16325569152832,,-1.6352397203445435
71080,8.38859479555682,,,
71081,,16.9581298828125,-2.8634653091430664,-1.8722656965255737
71100,4.532370382771149,,,
71101,,12.49055004119873,-3.0573954582214355,-0.5530605912208557
71120,3.721286069203777,,,
71121,,7.953537940979004,-0.33758243918418884,-2.0039467811584473
71140,5.090382217415974,,1.558625340461731,
71141,,8.334216117858887,,-3.308786630630493
71161,3.9680523597123747,9.411606788635254,3.050212860107422,-1.1228805780410767
71181,2.1274561431703547,11.216835021972656,0.8810662031173706,0.07900865375995636
71201,1.519447932373978,,-0.9433154463768005,
71202,,10.584765434265137,,2.070984363555908
71221,2.439971551103933,8.197746276855469,-1.8507179021835327,
71222,,,,1.3623007535934448
71241,3.8093402463534014,,,
71242,,7.132327079772949,-2.628833532333374,0.7948749661445618
71260,3.8170539048715715,,,
71261,,6.871358871459961,-2.2816741466522217,0.6584054827690125
71280,4.59477523469837,,,
71281,,5.353435039520264,-1.0031704902648926,0.6560112833976746
71301,5.1654519940048,,0.0933738648891449,
71302,,4.675876140594482,,0.011971008032560349
71320,5.190350220611096,,,
71321,,4.72376012802124,1.2856862545013428,-0.009576806798577309
71340,4.685692400499069,,,
71341,,5.513846397399902,2.073378562927246,-0.2801215946674347
71361,4.301988035659788,6.064512729644775,2.161964178085327,-0.6751648783683777
71381,3.3693423003497687,,,
71382,,6.854599475860596,1.8626888990402222,-0.43095630407333374
71401,2.4452971924129003,8.971074104309082,2.1787235736846924,
71402,,,,2.03507137298584
71420,4.404482439619108,10.793061256408691,3.2130186557769775,
71421,,,,3.665522813796997
71440,3.7113069049279552,11.003750801086426,3.2130186557769775,
71441,,,,2.52109432220459
71460,3.6112941907461233,,,
71461,,11.767500877380371,2.8802247047424316,2.169146776199341
71480,3.6172070101053215,12.876016616821289,1.8746598958969116,1.6065093278884888
71500,4.607434294175716,,2.9233202934265137,
71501,,13.694833755493164,,0.8667010068893433
71520,4.484531094163746,12.531251907348633,2.3702597618103027,3.512293815612793
71539,5.5007906258796675,,,
71540,,,1.9345149993896484,
71541,,9.998186111450195,,5.999869346618652
71560,2.409194531837628,,,
71561,,9.569623947143555,2.205059766769409,2.693476915359497
71580,3.2399802174376324,12.567164421081543,0.2825157940387726,-0.7469909191131592
71599,8.694911950988878,,,
71600,,16.962919235229492,3.114856481552124,-3.8331170082092285
71620,8.514324011858267,15.794548988342285,1.9776105880737305,-5.56173038482666
71639,3.521697771543123,,0.6320692300796509,
71640,,11.650185585021973,,-2.5522189140319824
71659,3.335666475743992,,,
71660,,8.233659744262695,-0.5482721924781799,-1.821987509727478
71679,4.053507315222884,,,
71680,,8.827422142028809,-1.821987509727478,-1.4676456451416016
71698,3.407862570288543,,,
71699,,8.69334602355957,-1.1851298809051514,-1.1037269830703735
71719,1.12186147740112,9.916783332824707,1.2282254695892334,-0.7038952708244324
71738,2.5292126026622066,,,
71739,,11.18092155456543,3.5649664402008057,-0.6224924325942993
71758,3.427565072163266,,,
71759,,10.984597206115723,4.697423934936523,-0.5793967843055725
71778,2.9604071391250097,,,
71779,,7.671022415161133,3.4811692237854004,-0.6967126727104187
71798,4.592252318504671,5.20978307723999,1.3694833517074585,
71799,,,,-0.5913678407669067
71817,5.615175271428081,,,
71818,,4.206612586975098,0.31124621629714966,-0.002394201699644327
71839,6.530035900817605,,-0.05506663769483566,
71840,,3.3207578659057617,,0.2082955539226532
71858,6.098550480454064,,,
71859,,3.799597978591919,-0.33039984107017517,0.7182605266571045
71878,4.163623435972224,,,
71879,,6.071695327758789,-0.9289502501487732,0.24899697303771973
71897,2.33267443300088,,-0.8331822156906128,
71898,,8.549694061279297,,1.4844050407409668
71916,3.2552524085557795,10.591948509216309,-0.8906430602073669,
71917,,,,3.00711727142334
71936,4.58911958216701,10.6709566116333,-1.5682021379470825,4.146757125854492
71956,4.341868699852944,9.9000244140625,-0.7829039692878723,4.422090530395508
71976,2.9391963200217495,,,
71977,,9.765948295593262,1.2258312702178955,3.4165258407592773
71996,3.1704916356795616,,,
71997,,11.18092155456543,1.3838485479354858,3.4308910369873047
72017,3.374301979502865,12.076353073120117,1.0127472877502441,-1.6519991159439087
72036,4.261023865997077,,,
72037,,12.464214324951172,2.03507137298584,3.797203779220581
72057,6.993919456413047,10.862493515014648,2.669534921646118,7.558494567871094
72076,4.596462979708216,,,
72077,,12.6150484085083,3.1435868740081787,3.758896589279175
72096,7.182892226315475,,,
72097,,15.954959869384766,2.274491548538208,-2.0254945755004883
72117,6.375669257245328,14.951789855957031,-1.6208745241165161,-1.8531121015548706
72136,8.308541868520434,,,
72137,,15.91665267944336,-4.771644115447998,-0.9911994934082031
72157,5.108992162704803,12.840104103088379,-3.6080620288848877,-0.3734954595565796
72176,3.0860017793938286,,-0.40940847992897034,
72177,,8.398859977722168,,-1.338358759880066
72196,6.8415752421817,,,
72197,,7.560888767242432,2.559401512145996,-4.359841346740723
72216,5.110056607106426,7.967903137207031,3.179499864578247,
72217,,,,-2.0015525817871094
72237,2.2820503189664065,11.863269805908203,-0.5099649429321289,1.9919757843017578
72256,3.6644284323866914,10.843339920043945,-2.6384103298187256,3.536235809326172
72276,3.608260473935621,,,
72277,,8.75080680847168,-3.1866824626922607,2.3702597618103027
72295,3.6446943992739804,,,
72296,,7.515398979187012,-2.7485435009002686,1.0534487962722778
72316,4.358763292936158,5.633556365966797,-0.7829039692878723,0.021547814831137657
72335,6.295354238273774,,,
72336,,3.7684733867645264,0.36152446269989014,-0.912190854549408
72356,6.998772377268628,,,
72357,,3.3925838470458984,1.4197616577148438,-1.7310078144073486
72376,5.117811604653647,5.190629482269287,2.0207061767578125,-0.8571242094039917
72397,3.942299234119954,6.327875137329102,2.408566951751709,0.17238251864910126
72416,2.7928658846605807,7.778761386871338,2.557007312774658,0.7661445140838623
72435,2.510774378531236,9.244012832641602,2.652775526046753,1.8602946996688843
72457,3.562929094138473,9.057265281677246,2.9879636764526367,
72458,,,,3.00711727142334
72475,2.990722935267844,,2.80361008644104,
72476,,8.834604263305664,,2.293645143508911
72495,2.238404169086121,10.012551307678223,2.31758713722229,1.941697597503662
72515,4.073969217999688,12.820950508117676,2.0231003761291504,2.7269957065582275
72535,5.206332481069796,14.82968521118164,1.6903064250946045,1.0797849893569946
72554,4.464812778422216,,2.3702597618103027,
72555,,13.261483192443848,,2.6431987285614014
72574,4.466988169548333,,2.999934673309326,
72575,,10.321403503417969,,4.458003520965576
72594,4.0230347663274175,,,
72595,,8.647856712341309,2.5905263423919678,
72596,,,,4.285621166229248
72614,1.9355765608927467,,,
72615,,,1.7573440074920654,
72616,,11.202469825744629,,-0.28730419278144836
72633,7.929318514352339,,,
72634,,17.283742904663086,1.0989385843276978,-1.8315643072128296
72654,10.76462571332821,18.35873794555664,2.3774423599243164,-5.9974751472473145
72674,5.678686670331855,14.07311725616455,0.49559974670410156,-3.222595453262329
72693,2.756706729337952,,,
72694,,9.402029991149902,-0.14604631066322327,-1.7597382068634033
72713,4.211971686765274,,,
72714,,7.438784599304199,-1.6376339197158813,-0.48602294921875
72733,4.049744755743246,,,
72734,,7.726089000701904,-1.6160861253738403,-0.19393034279346466
72753,2.5327108429847183,,0.19153612852096558,
72754,,8.269572257995605,,-0.8379706144332886
72774,1.4239448321617951,10.283096313476562,2.4612393379211426,-0.6440402865409851
72793,3.5555630789783144,,,
72794,,11.868058204650879,4.422090530395508,-0.20350714027881622
72813,2.76760844858123,9.373299598693848,4.252102375030518,-0.30885201692581177
72832,3.5327357314625236,,,
72833,,6.471527099609375,2.43011474609375,-0.6416460275650024
72853,5.4283203160137,4.3861775398254395,1.0319008827209473,
72854,,,,-0.4884171485900879
72872,6.536941603669499,,,
72873,,3.49314022064209,-0.7015010714530945,0.26575639843940735
72893,5.343199762938406,4.683058738708496,-0.6153098344802856,0.5434837937355042
72912,4.8696852837296625,,,
72913,,5.0876784324646,-0.3878606855869293,0.4165911078453064
72933,3.526425467056837,,-0.9433154463768005,
72934,,6.797138690948486,,0.9217676520347595
72953,2.198762727823118,8.899248123168945,-0.6177040338516235,1.86508309841156
72972,2.862808584046723,,-0.14365209639072418,
72973,,9.923966407775879,,3.1052796840667725
72992,3.794729874839321,,,
72993,,9.653421401977539,-0.22026655077934265,4.067748546600342
73013,3.4269554013816816,10.041281700134277,1.1540051698684692,3.883395195007324
73032,3.4521050651447935,10.876858711242676,1.6543933153152466,
73033,,,,3.7421371936798096
73052,2.6863061781698554,12.05959415435791,-0.304063618183136,-0.19153612852096558
73073,4.373891853589822,14.068328857421875,1.3072341680526733,1.158793568611145
73093,6.238440848968131,10.469843864440918,1.4173674583435059,6.957550048828125
73112,5.246553652239733,10.90798282623291,2.5737667083740234,5.789179801940918
73132,5.292232673391403,14.539986610412598,2.691082715988159,0.26096799969673157
73152,6.6872592775746185,15.638925552368164,1.9728221893310547,-1.6903064250946045
73171,8.343672276967121,,-2.3989901542663574,
73172,,17.07065773010254,,-1.6735470294952393
73190,5.764811140475598,,,
73191,,14.15212631225586,-3.2537200450897217,0.009576806798577309
73211,2.3339814126223355,,-1.7764976024627686,
73212,,9.500192642211914,,-0.06224924325942993
73250,5.295483791882276,8.406042098999023,1.3934253454208374,-3.4404678344726562
73289,3.207337823634578,,-1.5873557329177856,
73290,,11.939884185791016,,3.1459810733795166
73329,4.254224809080532,6.720524311065674,-2.190694570541382,-0.6440402865409851
73368,5.774732060017177,,,
73369,,4.302380561828613,-0.5506663918495178,-0.569819986820221
105200,4.820566526177269,,1.0127472877502441,
105201,,5.0685248374938965,,2.233790159225464
105239,6.29350065402219,,,
105240,,3.4620156288146973,0.7805097699165344,2.075772762298584
105279,3.19333488618286,,,
105280,,6.696582317352295,1.6496049165725708,2.0159177780151367
105319,4.296114101663469,,,
105320,,12.09311294555664,-0.7829039692878723,3.9647979736328125
105359,10.15242077753099,16.302120208740234,4.446032524108887,7.548917770385742
105399,1.4299793049842033,9.253589630126953,0.8786720037460327,2.5522189140319824
105439,8.7453369794581,16.804901123046875,-0.1364694982767105,-3.998316764831543
105479,9.113408918013807,,,
105480,,16.778566360473633,0.23942017555236816,-4.855441093444824
105519,5.510969839712312,14.85123348236084,-1.7357962131500244,-0.47405192255973816
105558,2.834731504990076,,,
105559,,11.003750801086426,1.482010841369629,
105560,,,,-0.6248866319656372
105599,2.8244264982643643,7.1706342697143555,0.7445967197418213,0.33997663855552673
105639,8.318021159697995,1.6112977266311646,0.014365210197865963,-0.6320692300796509
105679,4.330770076788632,,,
105680,,5.432443618774414,0.3926490843296051,0.7445967197418213
105719,2.6905554324913727,8.08043098449707,2.456450939178467,0.608127236366272
105759,4.7316461636613125,,,
105760,,5.513846397399902,2.1715409755706787,1.7693150043487549
105798,3.134648039802086,,2.387019157409668,
105799,,11.791443824768066,,2.1092917919158936
105838,8.801944119106807,17.38190460205078,4.369418144226074,
105839,,,,2.717418909072876
115189,8.44702334370757,,,
115190,,15.780183792114258,2.6599581241607666,-5.0876784324646
115229,2.9932089872240346,7.979874134063721,0.22026655077934265,-1.7693150043487549
115268,4.541900745390794,,-1.359906554222107,
115269,,6.660669326782227,,-1.2497732639312744
115308,2.4875986549328415,,,
115309,,11.417947769165039,3.272873640060425,0.05267243832349777
115349,1.8940495773400756,10.261548042297363,3.050212860107422,-0.12928688526153564
115388,5.432358865392383,,0.47165772318840027,
115389,,4.390965938568115,,-0.16519992053508759
115429,5.957119940425838,3.8115692138671875,0.2059013396501541,0.8690952062606812
115469,2.5394832321187235,8.209717750549316,-0.9026140570640564,1.9321208000183105
115507,1.5662377473758355,,,
115508,,8.724471092224121,-0.1388636976480484,1.4508862495422363
115549,4.470503883038434,8.731653213500977,1.5658079385757446,4.970362663269043
115588,3.8106725096216203,,,
115589,,11.537657737731934,-1.0127472877502441,-2.2888567447662354
115628,8.843902694408394,,,
115629,,13.184868812561035,0.15801730751991272,8.80587387084961
115668,4.890444036188713,,3.8139634132385254,
115669,,13.378799438476562,,1.5179238319396973
115708,6.405046452302461,,-1.920149803161621,
115709,,15.662867546081543,,0.21308395266532898
115748,3.0928941564003307,,,
115749,,9.742006301879883,-1.9512743949890137,-1.1516109704971313
115787,5.010601249144626,,,
115788,,8.001421928405762,1.9991583824157715,-2.7748796939849854
115827,1.345673980175823,,,
115828,,,0.05985504388809204,
115829,,10.903194427490234,,0.8188169598579407
129194,2.331877685807071,7.41484260559082,0.2082955539226532,
129195,,,,0.9720458984375
129242,3.246648380716306,8.93037223815918,1.5298948287963867,
129243,,,,3.9624037742614746
129254,3.848531834464123,11.8441162109375,2.3271639347076416,3.5889084339141846
129274,3.355474434293788,13.072340965270996,0.5985504388809204,0.6823474764823914
129294,4.771562723210626,14.511256217956543,0.14365209639072418,0.6560112833976746
129313,5.400185066160168,9.801861763000488,-0.5410895943641663,
129314,,,,6.4164605140686035
129333,6.8444567450430736,11.346121788024902,1.9033904075622559,7.934384346008301
129353,4.467725943224334,12.847286224365234,2.9759926795959473,3.4739866256713867
129373,6.441232136443063,13.814543724060059,3.2321722507476807,-2.229001760482788
129393,6.314016027923821,15.727511405944824,-1.338358759880066,0.871489405632019
129413,8.97507118473141,16.845603942871094,-4.240131378173828,-1.656787633895874
129433,6.418646601927812,12.09550666809082,-5.60722017288208,-0.6416460275650024
129453,3.1109100080010124,8.058882713317871,-1.434126853942871,-0.6488286852836609
129472,5.201019135888647,,,
129473,,7.939172744750977,1.8507179021835327,-2.585737943649292
129493,5.505184157891967,7.603984832763672,3.488351821899414,-1.6352397203445435
129513,2.0265995489894175,9.220070838928223,0.0,-0.31364041566848755
129532,1.1366795798562883,,,
129533,,9.694122314453125,-1.4317326545715332,1.9105730056762695
129553,2.1906072074396126,8.621520042419434,-2.1739351749420166,1.6424223184585571
129572,1.711016230753126,,,
129573,,8.422801971435547,-1.2856862545013428,1.2713210582733154
129592,2.2505484018636124,,,
129593,,7.560888767242432,-0.1628057211637497,0.6416460275650024
129612,3.36615640027804,6.6127848625183105,0.07661445438861847,-0.06224924325942993
129632,3.6978036496080597,,,
129633,,6.349422931671143,0.05267243832349777,-0.30885201692581177
129653,3.3468137591232705,6.555324077606201,0.10773907601833344,0.09816227108240128
129673,2.837034575484606,7.058106422424316,0.43095630407333374,0.14844051003456116
129692,2.231856947980488,,,
129693,,8.003816604614258,1.678335428237915,0.7110779285430908
129713,2.768572255235268,,3.0526070594787598,
129714,,9.296685218811035,,1.1276689767837524
129733,3.1184305948665907,9.148244857788086,3.270479440689087,1.7693150043487549
129753,3.547906666754837,7.922413349151611,3.1028854846954346,2.2146365642547607
129773,3.6893483071813185,7.407660007476807,3.114856481552124,1.9177556037902832
129792,2.4495888267680868,,,
129793,,9.265560150146484,2.8802247047424316,1.37906014919281
129813,3.6653661299906077,12.631808280944824,2.142810583114624,2.406172752380371
129832,4.675854879132586,,,
129833,,14.420276641845703,0.8523358106613159,1.0342950820922852
129853,2.8989490972644334,12.066776275634766,1.702277421951294,2.078166961669922
129872,4.269922795189614,,,
129874,,10.436325073242188,2.315192937850952,4.831499099731445
129892,5.586328623490031,,0.9026140570640564,
129893,,9.47146224975586,,6.718130111694336
129912,1.0439412016114102,10.371682167053223,1.403002142906189,
129913,,,,1.7310078144073486
129930,6.077694129871896,,,
129931,,15.260642051696777,0.14365209639072418,-1.2066776752471924
129951,9.959290228376084,,,
129952,,17.79131317138672,3.6511576175689697,-4.261679172515869
129971,7.6096231471024876,15.655684471130371,2.676717519760132,
129972,,,,-3.667917013168335
129991,2.645788617895144,10.448296546936035,1.7693150043487549,-1.678335428237915
130010,4.798313384964766,,,
130011,,7.3238630294799805,-0.7206547260284424,-2.650381326675415
130032,5.751617867457965,6.44279670715332,-2.4899697303771973,-1.4197616577148438
130051,4.326677982529085,,-1.1061211824417114,
130052,,6.847416877746582,,-0.849941611289978
130071,2.1062014973203427,8.38449478149414,1.359906554222107,-0.8858546018600464
130091,3.404686245123679,12.018892288208008,3.9408559799194336,-0.14844051003456116
130111,4.67036377823451,13.010091781616211,4.685452938079834,
130112,,,,1.3192051649093628
130131,0.9446570906569896,9.945513725280762,2.274491548538208,0.3256114423274994
130152,2.9070553227827016,,,
130153,,7.036558628082275,0.3687070608139038,0.047884032130241394
130170,4.452449493036065,5.475539207458496,-0.09576806426048279,
130171,,,,0.304063618183136
130190,5.2292624942261705,,,
130191,,4.630385875701904,-0.014365210197865963,0.30885201692581177
130210,5.1187458490115,,,
130211,,4.654327869415283,0.24420857429504395,0.6009446382522583
130230,3.741759974640905,,,
130231,,6.0597243309021,0.033518824726343155,1.2234370708465576
130249,1.9157365601556156,,,
130250,,,0.3256114423274994,
130251,,7.85537576675415,,1.0271124839782715
130272,0.8056372805681143,9.23443603515625,0.3926490843296051,1.4317326545715332
130289,1.7496823976322755,,,
130290,,9.66539192199707,0.18914192914962769,2.5115175247192383
130310,3.139179561363358,8.846575736999512,-0.08140286058187485,
130311,,,,3.758896589279175
130330,3.225187216359138,8.470685958862305,0.3232172429561615,3.840299606323242
130350,3.223127185050752,,,
130351,,9.586383819580078,2.0039467811584473,3.890577793121338
130370,1.273248623373657,,,
130372,,10.836156845092773,0.6320692300796509,1.6424223184585571
130390,4.030059402065891,,,
130391,,13.259089469909668,0.3878606855869293,-0.9217676520347595
130411,3.227136740951614,10.912771224975586,0.5099649429321289,3.928884983062744
130430,6.9740965993069555,10.881647109985352,2.1547815799713135,7.850587368011475
130450,4.935443111728312,,,
130451,,11.908759117126465,3.1196448802948,
130452,,,,5.03021764755249
130469,4.677959855604207,,,
130470,,13.565546989440918,2.80361008644104,-0.1412578970193863
130489,5.976761638839213,,,
130490,,15.243882179260254,1.5155296325683594,-0.6224924325942993
130509,8.15822440033436,17.24782943725586,-1.7717092037200928,-0.849941611289978
130530,5.7829112372515015,12.7946138381958,-4.288015365600586,
130531,,,,-0.2968810200691223
130549,4.506818903170679,,,
130550,,8.439560890197754,-3.531447410583496,-0.7158663272857666
130569,4.242392744013454,7.680599212646484,-0.4572925269603729,-2.0805611610412598
130589,5.881392552009267,7.922413349151611,2.540247917175293,-3.397372245788574
130609,2.3452664365063356,9.282320022583008,0.7230489253997803,
130610,,,,-0.667982280254364
130629,2.5830691930620517,11.90157699584961,-1.3096283674240112,2.1308395862579346
130649,2.6625415565936956,10.778696060180664,-2.1356279850006104,2.669534921646118
130669,2.0207288131688648,8.757989883422852,-1.7286136150360107,1.5753847360610962
130689,2.442075884727995,7.618350028991699,-0.9959878921508789,
130690,,,,0.7852981686592102
130709,3.982463183523192,5.899312973022461,-0.15083470940589905,0.19871874153614044
130728,4.502649375051684,,,
130729,,5.427655220031738,0.272938996553421,-0.14365209639072418
130748,4.604829467200394,5.240907669067383,0.2992752194404602,0.12928688526153564
130768,3.568259686193026,,,
130769,,6.246472358703613,0.6775590777397156,0.33039984107017517
130788,2.517964761785887,,,
130789,,7.457938194274902,1.6065093278884888,1.0127472877502441
130808,2.4903331781869884,7.939172744750977,2.2697031497955322,
130809,,,,1.0031704902648926
130827,2.4245979998373812,,,
130828,,8.38449478149414,2.497152328491211,
130829,,,,1.3766659498214722
130848,2.4257258164710898,8.487444877624512,2.2601263523101807,1.9608511924743652
130867,2.6181649731325347,,2.2026655673980713,
130868,,8.470685958862305,,2.343923568725586
130889,2.262889289032436,8.968679428100586,2.2864625453948975,2.0254945755004883
130907,2.277656546780654,10.752359390258789,2.188300371170044,
130908,,,,2.0183119773864746
130927,2.930817165017419,,,
130928,,12.064382553100586,1.7046716213226318,2.1332337856292725
130947,3.0130635980831455,,1.7597382068634033,
130948,,12.519280433654785,,1.1444283723831177
130967,3.2858479573324835,12.284648895263672,1.889025092124939,2.4396915435791016
130988,4.490109488802645,10.704475402832031,2.2625205516815186,5.006275653839111
131007,4.68635321258497,9.586383819580078,1.6160861253738403,5.65031623840332
131026,1.3561311362077872,,,
131027,,10.481815338134766,1.886630892753601,0.5410895943641663
131047,6.841394864010024,16.017210006713867,2.477998733520508,-1.158793568611145
131066,9.82026044760469,17.6763916015625,4.079719543457031,
131067,,,,-4.072536945343018
131087,5.9477700807197875,14.484920501708984,3.28963303565979,-2.169146776199341
131106,2.1377789588620066,10.311826705932617,1.335964560508728,-1.3455413579940796
131126,4.598250280231431,7.819462776184082,-1.5849615335464478,-1.8986018896102905
131146,6.684907214505878,7.307103633880615,-4.197035789489746,-0.9768342971801758
131166,4.230220544354849,,-2.1140801906585693,
131167,,8.212111473083496,,0.019153613597154617
131186,1.7136047336215579,9.342175483703613,0.5722141861915588,-0.5578489899635315
131205,2.9124550156946327,11.841721534729004,3.184288263320923,
131206,,,,-0.5123591423034668
131225,3.113498426494259,,,
131226,,11.3269681930542,4.125209331512451,0.16519992053508759
131246,1.461079228508211,9.442731857299805,2.6240451335906982,-0.15801730751991272
131265,3.713064383304306,,,
131266,,6.2847795486450195,1.3455413579940796,-0.689530074596405
131285,4.703642857831917,,,
131286,,5.1331682205200195,0.871489405632019,-0.21787235140800476
131305,5.2133574807338725,4.6255974769592285,0.4884171485900879,-0.11013327538967133
131325,4.70014103616984,,,
131326,,5.142745018005371,0.5410895943641663,
131327,,,,-0.10295066982507706
131345,3.9882245783651133,5.882553577423096,-0.15801730751991272,0.6272808313369751
131365,2.4449080355146333,7.931990146636963,-0.5817909836769104,1.6639702320098877
131384,2.335684159744119,,,
131385,,10.398017883300781,-0.7852981686592102,2.3487119674682617
131404,2.8849834755039176,,,
131405,,11.377246856689453,-0.07900865375995636,
131406,,,,2.8179752826690674
131425,2.767121680503833,8.520963668823242,0.33039984107017517,2.985569477081299
131444,4.174463733335996,,0.2585737705230713,
131445,,6.54574728012085,,3.3039982318878174
131464,2.9944181966800976,,1.1899182796478271,
131465,,7.785943984985352,,2.978386878967285
131484,2.2946320046321436,,,
131485,,11.034875869750977,2.126051187515259,2.0590133666992188
131505,4.360542168461358,,2.2457611560821533,
131506,,13.759477615356445,,-0.05985504388809204
131524,4.187998044586454,,,
131525,,13.927071571350098,0.8547300100326538,0.9792284965515137
131545,7.370936421876909,,,
131546,,11.674127578735352,0.13407529890537262,7.826645374298096
131564,7.325699850246284,,,
131565,,12.665327072143555,2.9544448852539062,7.362170219421387
131585,5.123805209195344,14.381969451904297,2.7940332889556885,1.6400281190872192
131604,4.454113231560849,,,
131605,,13.539210319519043,1.0773907899856567,-1.0127472877502441
131623,6.052513155444288,,,
131624,,14.647726058959961,-2.715024709701538,
131625,,,,-0.0694318488240242
131643,7.133529376369413,,-5.504269599914551,
131644,,13.491326332092285,,-0.2106897532939911
131663,5.103983516391457,,,
131664,,9.897629737854004,-4.479551315307617,-0.6871358752250671
131684,4.361980138370538,7.5417351722717285,-0.9433154463768005,-2.1499931812286377
131703,4.594661284904258,8.164227485656738,2.1715409755706787,-2.1930887699127197
131723,2.8111806530029977,,1.889025092124939,
131724,,9.44752025604248,,-0.4668693244457245
131743,1.2422699810930746,10.790667533874512,-0.11013327538967133,0.8643068075180054
131762,0.7509585454041976,,,
131763,,,-0.727837324142456,
131764,,9.576807022094727,,1.7717092037200928
131783,2.0342110985332855,8.161833763122559,-1.2497732639312744,1.5729905366897583
131804,1.773227561590366,8.389283180236816,-0.9576807022094727,1.05105459690094
131823,3.631707923891734,,,
131824,,6.320692539215088,-0.7158663272857666,0.5195417404174805
131842,3.9295672479814736,,,
131843,,6.088454723358154,-0.3256114423274994,-0.0694318488240242
131862,4.16358151977085,,,
131863,,5.91128396987915,-0.28969839215278625,-0.31842881441116333
131883,3.346933578420243,6.72531270980835,0.5434837937355042,-0.4165911078453064
131903,2.9346458691916264,7.113173484802246,1.1468225717544556,-0.2322375625371933
131921,2.5425912603243246,,,
131922,,7.876923561096191,2.2601263523101807,0.37828385829925537
131942,2.8604057413676514,9.32541561126709,3.2345664501190186,1.7693150043487549
131962,3.173097722445523,9.057265281677246,3.3901896476745605,2.051830768585205
131982,3.2371000889814923,8.13789176940918,3.318363666534424,1.5322890281677246
132002,2.9023187772310552,8.08043098449707,2.937685489654541,1.434126853942871
132022,2.4152195204010076,10.141838073730469,2.6791117191314697,2.0039467811584473
132042,3.358978815891507,,1.9488801956176758,
132043,,12.509703636169434,,2.0661959648132324
132061,4.269360593856074,13.991714477539062,0.8954314589500427,
132062,,,,1.0773907899856567
132082,3.6574360806556867,12.665327072143555,1.3263877630233765,2.6791117191314697
132101,4.515021577532167,,2.341529369354248,
132102,,10.465055465698242,,4.917690277099609
132121,4.931591119801031,8.820239067077637,1.2018892765045166,5.750872611999512
132141,0.9239215440676146,,,
132142,,9.852140426635742,1.659181833267212,1.5705963373184204
132161,6.6867721018872865,16.074670791625977,1.7262194156646729,-0.9696516990661621
132181,11.240456156858485,18.8280029296875,4.501099109649658,-4.874594688415527
132200,7.726659266962299,,,
132201,,,3.818751811981201,
132202,,15.308526039123535,,-3.9408559799194336
132221,2.652375570788961,9.469067573547363,1.4676456451416016,-1.9273324012756348
132241,4.614261222716994,6.909666061401367,-0.7661445140838623,-2.0254945755004883
132260,6.541483040275419,,-3.485957622528076,
132261,,6.411672115325928,,-1.2401964664459229
132280,4.524096926783255,,,
132281,,7.879317760467529,-2.22660756111145,-0.14365209639072418
132300,1.4169678741829945,,0.6153098344802856,
132301,,9.440337181091309,,-0.14365209639072418
132321,3.9158472191423086,12.741941452026367,3.9240965843200684,
132322,,,,-0.15562310814857483
132340,4.2935556248364195,12.385205268859863,4.821922302246094,0.8212111592292786
132361,1.5484006659845069,9.378087997436523,2.762908697128296,-0.016759412363171577
132379,4.087994205567794,,,
132380,,5.7987565994262695,0.9265560507774353,-0.363918662071228
132399,5.020895212301304,,,
132400,,4.8267107009887695,0.37828385829925537,
132401,,,,0.009576806798577309
132418,5.4053156932912465,,,
132419,,4.49870491027832,0.05746084079146385,-0.08140286058187485
132439,5.334516612554883,4.49870491027832,-0.07422025501728058,
132440,,,,0.45250412821769714
132459,4.3630740424725385,5.635950565338135,-0.706289529800415,
132460,,,,1.3431471586227417
132481,1.6210880141558917,8.556877136230469,-0.06703764945268631,1.680729627609253
132500,2.159918277042207,,0.33758243918418884,
132501,,11.202469825744629,,2.27209734916687
132520,1.8156921295519834,10.359710693359375,-0.16759411990642548,2.209848165512085
132539,3.2538617006254085,8.04930591583252,-0.21787235140800476,
132540,,,,3.3303346633911133
132559,3.4863300398279056,7.249642848968506,0.1149216815829277,3.1531636714935303
132579,3.1488745601378594,8.844181060791016,1.5634137392044067,3.7038300037384033
132598,2.1419595609635635,,,
132599,,11.379640579223633,1.3096283674240112,2.0638017654418945
132619,5.813714013424018,,,
132620,,15.06671142578125,0.16519992053508759,-1.4748282432556152
132638,3.792533244500901,12.526463508605957,0.5626373887062073,3.335123062133789
132661,7.76262669851501,,2.0590133666992188,
132662,,11.75792407989502,,8.269572257995605
132703,6.173245743747394,,,
132704,6.070278879511948,12.835315704345703,3.9240965843200684,5.319916248321533
132736,6.916325602874022,15.567099571228027,-2.889801502227783,-0.6057330369949341
132775,3.6932646095226036,,,
132776,,9.320627212524414,-2.8562827110290527,-0.7829039692878723
132900,1.4919281579380712,8.808267593383789,-1.1204863786697388,1.338358759880066
132935,3.891397545036439,,,
132936,,6.248866558074951,0.8092401623725891,-0.272938996553421
132974,3.263041519298374,,,
132975,,6.588842868804932,0.5027823448181152,0.3447650372982025
133014,2.1700989850932006,,,
133015,,7.881711959838867,1.680729627609253,0.5267243981361389
133054,2.365246672720404,,,
133055,,7.987056732177734,2.27209734916687,1.5705963373184204
133094,2.8912331431120513,7.891288757324219,2.7509377002716064,2.0638017654418945
133134,2.181587949439613,,,
133135,,10.541669845581055,2.403778553009033,2.183511972427368
133175,4.552718455034371,14.06114673614502,2.0925323963165283,0.21547815203666687
133214,5.73141794073056,,,
133215,,11.956643104553223,3.114856481552124,5.868188381195068
133255,2.992852279081662,12.227188110351562,1.5442601442337036,
133256,,,,-0.3758896589279175
133295,10.540385011304068,16.81687355041504,4.3191399574279785,
133296,,,,-6.232107162475586
133335,2.7840196342049954,8.616731643676758,0.7350199222564697,-1.6687586307525635
133374,6.250367420840779,,,
133375,,6.222530364990234,-3.1531636714935303,-0.9145850539207458
133414,1.541636062868177,,,
133415,,9.102754592895508,1.479616641998291,-0.7709329724311829
133454,2.792163652810255,11.221623420715332,3.823540210723877,0.7565677165985107
133493,3.700209359096788,,,
133494,,6.016628742218018,1.2425906658172607,0.3280056416988373
133534,4.257419393048524,5.5976433753967285,0.35913026332855225,0.0454898327589035
133573,2.38324801107772,7.536946773529053,-0.1173158809542656,1.0055646896362305
133613,1.9932052107156266,9.63187313079834,0.0,
133614,,,,2.626439332962036
133653,3.301571939782559,,0.13407529890537262,
133654,,7.5417351722717285,,3.270479440689087
133693,1.4556829437214691,,,
133694,,10.005369186401367,1.7717092037200928,1.9081788063049316
133732,4.387989705896952,,,
133733,,14.106636047363281,1.0893617868423462,1.0845733880996704
133772,6.184080469829303,12.078747749328613,1.6927006244659424,
133773,,,,6.775590896606445
133812,6.066590178010993,15.179238319396973,0.9552865028381348,-1.414973258972168
133831,6.383569978289938,,,
133832,,15.387534141540527,-1.766920804977417,-0.7924807667732239
133851,5.57930129869031,13.48653793334961,-3.4811692237854004,-0.7015010714530945
133871,3.501628633050808,,-3.026270866394043,
133872,,9.272743225097656,,-0.5482721924781799
133890,4.337076893158899,,,
133891,,,-0.16519992053508759,
133892,,7.615955829620361,,-2.5474305152893066
133910,5.335892460690225,,,
133912,,7.960720539093018,2.1308395862579346,-3.335123062133789
133930,2.2952304064545195,,1.5466543436050415,
133931,,9.658209800720215,,-0.4692635238170624
133950,1.6421898781045088,,,
133951,,11.164162635803223,-0.5554547905921936,1.6735470294952393
133970,1.8528346588513427,,,
133971,,9.962273597717285,-1.2066776752471924,2.346317768096924
133991,2.071647933093702,8.458714485168457,-1.338358759880066,1.7693150043487549
134012,2.500587489717504,7.433996200561523,-0.8427590131759644,0.7422025203704834
134031,4.192982742459651,5.635950565338135,-0.23702596127986908,0.2106897532939911
134051,4.578379340804523,5.288791656494141,0.011971008032560349,-0.1364694982767105
134070,4.311383752514986,,,
134071,,5.523423194885254,-0.15083470940589905,0.17956513166427612
134092,3.066144215267103,,,
134093,,6.734889507293701,0.019153613597154617,
134094,,,,0.6919242739677429
134111,2.644385735299074,7.237671852111816,0.9648633003234863,0.9145850539207458
134130,2.3754635408687252,,,
134131,,7.905653953552246,1.8267759084701538,0.7134721279144287
134150,2.5173762131745874,8.04930591583252,2.2577321529388428,0.5722141861915588
134170,2.9396800615782865,,,
134171,,7.802703380584717,2.434903144836426,1.3192051649093628
134190,3.2963628145079245,8.037335395812988,2.604891538619995,2.188300371170044
134209,2.770656599178265,,,
134210,,8.83939266204834,2.6408045291900635,1.8626888990402222
134229,2.8591063326328507,,,
134230,,11.185709953308105,2.315192937850952,2.03507137298584
134250,4.211139511330243,,,
134251,,13.160926818847656,1.723825216293335,2.4612393379211426
134269,4.096883957399866,,,
134270,,13.603854179382324,1.6879122257232666,1.2042834758758545
134289,3.9104630600472547,,,
134290,,12.428300857543945,2.477998733520508,2.5043349266052246
134309,4.769833966770399,,,
134310,,10.790667533874512,2.5067291259765625,4.812345504760742
134329,2.114877827499793,,,
134330,,10.445901870727539,1.9512743949890137,2.2577321529388428
134349,3.9635230058522333,,,
134350,,13.527239799499512,-0.11252748221158981,-0.07661445438861847
134368,8.437053753390318,,,
134369,,17.362751007080078,1.721431016921997,-3.095702886581421
134388,8.978933899260266,,,
134389,,17.286136627197266,3.9695863723754883,-3.581725835800171
134409,3.8229217667853126,11.475408554077148,2.9712042808532715,-2.6839001178741455
134428,4.277421339193543,8.078036308288574,-0.011971008032560349,-3.2992098331451416
134449,5.1710975270042105,6.687005519866943,-2.0446481704711914,-1.5514427423477173
134469,3.881122182808496,8.090007781982422,-1.7621324062347412,-0.014365210197865963
134488,1.760612800401503,,,
134489,,8.734047889709473,0.31603461503982544,-0.2106897532939911
134509,1.8146606589425054,10.733205795288086,3.066972494125366,-0.26096799969673157
134529,2.975278722705354,11.133037567138672,4.170699596405029,0.10773907601833344
134549,1.910349019002786,9.366117477416992,3.2369606494903564,
134568,3.5203811686219,,,
134569,,6.421248912811279,1.601720929145813,-0.8427590131759644
134588,4.589691237492733,5.2911858558654785,0.7182605266571045,-0.5650315880775452
134608,4.923931551992872,4.987122058868408,0.11013327538967133,
134609,,,,-0.2561795711517334
134627,4.243321051288898,,,
134628,,5.688623428344727,-0.1628057211637497,0.7781155705451965
134647,3.22059089830623,,,
134648,,6.94079065322876,-0.4141969084739685,1.192312479019165
134668,2.498959133905492,8.164227485656738,-0.569819986820221,1.6615760326385498
134688,2.1382827753208615,,-0.45010992884635925,
134689,,9.14345645904541,,1.968033790588379
134708,2.0553877764896735,9.11233139038086,-0.24660277366638184,2.0039467811584473
134728,2.795075844842868,,,
134729,,8.17141056060791,-0.2944868206977844,2.4396915435791016
134747,3.4318312633800194,,0.1843535304069519,
134748,,7.376535415649414,,2.8586769104003906
134767,3.3475343199061034,,1.8626888990402222,
134768,,8.243236541748047,,3.313575267791748
134787,4.116284497600421,,2.734178304672241,
134788,,10.089165687561035,,4.235342979431152
134807,3.0420378018751033,11.475408554077148,-0.2801215946674347,-1.6112977266311646
134827,4.399760343787338,,,
134828,,14.101847648620605,0.38307225704193115,0.811634361743927
134847,6.376429079730903,10.034099578857422,1.2761094570159912,6.952761650085449
134867,4.732956273995433,11.602301597595215,2.166752576828003,4.977545261383057
134886,8.733388773424291,18.023550033569336,2.985569477081299,
134887,,,,-0.9481038451194763
134906,8.338286593505268,,,
134907,,17.67399787902832,0.4596867263317108,-1.7956513166427612
134925,9.71057923715644,,,
134926,,17.456125259399414,-4.520252704620361,-2.2026655673980713
134945,8.234905884511237,,,
134946,,15.126565933227539,-5.949591159820557,0.6919242739677429
134966,1.871039849701535,,,
134967,,9.995792388916016,-1.5203180313110352,0.11971008777618408
134986,6.696852659329716,6.854599475860596,1.9919757843017578,-4.338293552398682
135006,7.58124633688339,5.449203014373779,4.177882194519043,
135007,,,,-3.332728862762451
135024,1.713014848265066,8.274360656738281,0.5434837937355042,0.43095630407333374
135044,3.381819017518314,10.706870079040527,-1.9991583824157715,3.550601005554199
135064,3.444218676014635,10.302249908447266,-3.1435868740081787,2.032677173614502
135084,3.1155297788036473,7.924807548522949,-2.3942017555236816,1.070208191871643
135104,3.88175830307588,6.18182897567749,-1.2737152576446533,0.4596867263317108
135124,4.899580972621576,,,
135125,,4.920084476470947,0.21547815203666687,0.12928688526153564
135145,4.897541846446574,5.197812080383301,1.5945383310317993,-0.42856210470199585
135164,3.422270451518255,,,
135165,,6.610390663146973,1.434126853942871,-0.11013327538967133
135184,1.6416756308580343,,,
135185,,8.269572257995605,1.113303780555725,0.689530074596405
135204,1.0618411433596762,,,
135205,,9.248801231384277,1.2401964664459229,1.0079588890075684
135224,2.06664887646227,,,
135225,,9.524134635925293,2.166752576828003,1.601720929145813
135244,2.5333281098696747,,,
135245,,9.315838813781738,2.454056739807129,1.9847931861877441
135264,3.2371233628989144,,,
135265,,8.22887134552002,2.7940332889556885,2.212242364883423
135285,3.5841315215876337,7.2783732414245605,2.6815059185028076,2.078166961669922
135305,3.286422721238602,7.000645637512207,2.2002713680267334,1.5466543436050415
135324,2.1134930009222908,7.922413349151611,1.5729905366897583,1.2952631711959839
135345,0.5226003585604705,10.070012092590332,0.6919242739677429,0.22266076505184174
135364,2.9179167838620663,,0.6392518281936646,
135365,,12.677297592163086,,0.6320692300796509
135384,5.312079917904024,,,
135385,,13.66610336303711,2.2864625453948975,3.823540210723877
135405,5.850354384423207,12.662932395935059,2.1332337856292725,5.564124584197998
135424,2.914026173219453,11.973402976989746,2.3942017555236816,1.8507179021835327
135444,5.434808700830603,14.822503089904785,2.7078421115875244,
135445,,,,-0.011971008032560349
135464,8.21000455570443,,,
135465,,16.788143157958984,4.714183330535889,-1.357512354850769
135484,7.018402433409269,15.193603515625,4.151545524597168,-2.5689783096313477
135504,2.9324861307295875,,1.9967641830444336,
135505,,10.76193618774414,,-2.0231003761291504
135525,3.8805424830123143,8.497021675109863,-0.33758243918418884,-2.477998733520508
135543,6.183413610768403,,,
135544,,7.237671852111816,-2.9951462745666504,-2.4468741416931152
135563,5.324595247028428,7.592013359069824,-2.9544448852539062,
135564,,,,-0.49320554733276367
135584,4.296550502661853,8.437167167663574,-2.2146365642547607,-0.40222588181495667
135603,2.17604739960067,,-0.35913026332855225,
135604,,10.278307914733887,,0.21787235140800476
135623,1.6967151657897093,,,
135624,,11.116278648376465,1.9704279899597168,1.0678139925003052
135642,1.6931381697087966,,,
135643,,10.41956615447998,2.8227639198303223,0.7948749661445618
135663,2.496057262362911,7.433996200561523,2.1595699787139893,
135664,,,,0.05506663769483566
135682,4.32761685800369,,,
135683,,5.5114521980285645,1.8291701078414917,-0.12210428714752197
135701,4.942520100500114,,,
135702,,4.884171485900879,1.8794482946395874,0.33518823981285095
135722,5.479999242072505,,,
135723,,4.321534156799316,0.7541735172271729,1.2761094570159912
135743,4.327720430380775,5.928043365478516,-0.8619126081466675,1.6687586307525635
135761,4.251518651363946,,,
135762,,6.7277069091796875,-1.9249382019042969,2.0039467811584473
135782,3.392295179937853,7.383718013763428,-1.192312479019165,2.212242364883423
135801,2.4841959187004137,,,
135802,,7.682993412017822,-0.033518824726343155,1.7860745191574097
135822,2.5822946757465375,8.638279914855957,0.3208230137825012,2.9089550971984863
135841,3.651352822417584,,,
135842,,10.979808807373047,1.8100165128707886,3.794809579849243
135861,5.233249645819388,,,
135862,,12.679692268371582,4.000710964202881,3.28963303565979
135881,3.8013515377815223,,,
135882,,13.534421920776367,0.9840168952941895,0.4189853072166443
135902,5.294044481033672,,0.8523358106613159,
135903,,14.67166805267334,,2.7054479122161865
135921,8.038886451091043,14.269442558288574,0.0071826050989329815,
135922,,,,7.417236804962158
135941,6.038335719426177,13.589488983154297,-0.090979665517807,5.568912982940674
135960,3.8117785161972577,,,
135961,,13.364434242248535,-0.5578489899635315,1.0893617868423462
135981,6.408601952500693,14.18803882598877,-2.1811177730560303,
135982,,,,-2.5450363159179688
136001,9.893510683771577,17.6141414642334,-3.9432501792907715,-2.9975404739379883
136021,5.1526580321366735,13.7666597366333,-2.4636335372924805,-0.6368576288223267
136040,4.560688652105656,,,
136041,,8.7268648147583,-3.177105665206909,-1.7142484188079834
136060,4.784005362236565,,,
136061,,7.886500358581543,-0.950498104095459,-2.782062292098999
136080,3.9542333685042887,,0.8595184087753296,
136081,,8.736441612243652,,-2.1092917919158936
136101,1.2213396289776313,10.553641319274902,0.05027823522686958,0.7996633648872375
136120,0.8336149375675451,,,
136121,,9.363722801208496,0.3902548849582672,1.1779472827911377
136140,3.2136480395220364,6.576871871948242,-0.18914192914962769,0.667982280254364
136160,3.4852865762976935,6.430825710296631,-0.9265560507774353,0.6631938815116882
136180,3.7460096109147822,6.385335922241211,-1.3862427473068237,0.5339069962501526
136200,4.72672653544128,5.195417881011963,-0.8643068075180054,0.4644751250743866
136220,5.18504422440241,4.711789131164551,0.08140286058187485,-0.181959331035614
136240,3.450767575444804,6.619967937469482,0.8690952062606812,-0.4141969084739685
136259,1.6075415676787912,,,
136260,,8.925583839416504,1.742978811264038,1.0989385843276978
136279,2.1101171247688884,9.284713745117188,2.279279947280884,1.5538369417190552
136299,2.740796815190689,,,
136300,,8.307879447937012,2.698265314102173,1.2737152576446533
136319,3.305515338927319,,2.7102363109588623,
136320,,7.362170219421387,,1.2737152576446533
136339,3.461033804696715,6.847416877746582,2.1595699787139893,1.6879122257232666
136359,3.1293180006659584,7.4986395835876465,2.094926595687866,2.322375535964966
136379,1.7333626069140091,,,
136381,,9.48343276977539,1.702277421951294,2.0638017654418945
136399,3.054414468646463,12.231976509094238,1.8124107122421265,
136400,,,,2.0374655723571777
136419,4.812665069523447,14.45619010925293,1.702277421951294,0.8978256583213806
136438,4.863776957668321,,,
136439,,13.778631210327148,2.715024709701538,
136440,,,,2.432508945465088
136458,4.364490638543694,,3.112462282180786,
136459,,11.30063247680664,,4.055777549743652
136478,4.1415406564211175,9.66299819946289,1.8076223134994507,
136479,,,,4.922478675842285
136498,1.695097316322635,,2.427720546722412,
136499,,10.055646896362305,,0.1843535304069519
136518,6.889730313231607,,,
136519,,15.562311172485352,2.248155355453491,-2.5258827209472656
136539,10.142677228778776,17.341203689575195,3.6846764087677,-5.501875400543213
136558,7.5533901864067285,15.088258743286133,1.3503297567367554,-4.764461517333984
136578,3.7761570704572343,,,
136579,,10.651803016662598,0.6751648783683777,
136580,,,,-3.07415509223938
136598,4.362063874138643,8.276755332946777,-1.558625340461731,-1.9704279899597168
136617,3.9255264123599707,,,
136618,,8.980650901794434,-1.86508309841156,-0.40462008118629456
136637,3.258160103748389,,,
136638,,9.026140213012695,-1.2186486721038818,-0.2059013396501541
136657,1.2650376829181338,,0.768538773059845,
136658,,10.122684478759766,,-0.05027823522686958
136677,2.269417160764577,11.410765647888184,3.071760892868042,
136678,,,,-0.05746084079146385
136697,1.9092933874591254,,,
136698,,9.701305389404297,3.383007049560547,0.0454898327589035
136717,3.562068980059366,,,
136718,,6.469132900238037,2.27209734916687,-0.6033388376235962
136737,6.518379635407028,,1.0893617868423462,
136738,,3.397372245788574,,-0.8930372595787048
136757,6.682937063644312,3.064578056335449,0.7350199222564697,
136758,,,,0.17477671802043915
136777,6.047017886817132,3.73016619682312,0.5554547905921936,0.10055647045373917
136796,4.327673712934583,,,
136797,,5.492298603057861,0.09816227108240128,0.8427590131759644
136817,2.6132594451222695,7.939172744750977,-0.9074024558067322,1.3335703611373901
136836,2.1903216011771542,,,
136837,,8.925583839416504,-0.7996633648872375,1.7764976024627686
136857,2.2425507041957093,,,
136858,,9.459490776062012,-0.40462008118629456,2.322375535964966
136877,3.040133956668243,8.932766914367676,-0.5267243981361389,3.090914487838745
136896,3.186042452398255,,,
136897,,8.71489429473877,0.13168109953403473,3.4332852363586426
136917,3.1996663098397824,,,
136918,,10.06043529510498,2.2385785579681396,3.3494882583618164
136936,4.139171877978639,11.84650993347168,2.9951462745666504,
136937,,,,3.4189200401306152
136956,3.7683718464730913,13.330915451049805,1.280897855758667,-0.4141969084739685
136976,4.781840568421511,12.54561710357666,1.0127472877502441,4.546588897705078
136996,6.2764212043779875,,,
136997,,12.337321281433105,0.31603461503982544,6.471527099609375
137015,4.898331198383051,,,
137016,,14.520833015441895,0.5195417404174805,1.944091796875
137035,9.445299576087105,17.98763656616211,0.43335050344467163,-3.646369218826294
137055,8.918938843426018,,-2.315192937850952,
137056,,17.549497604370117,,-2.432508945465088
137075,8.64597060006495,,,
137076,,17.772159576416016,-2.669534921646118,-0.5506663918495178
137095,3.3157473786947778,,-2.942473888397217,
137096,,9.971850395202637,,-0.3447650372982025
137115,6.305996103156689,,,
137116,,6.715735912322998,-0.7996633648872375,-4.065354347229004
137135,6.5293038859145724,,1.216254472732544,
137136,,6.335057735443115,,-3.976768970489502
137154,1.747900930098153,,,
137155,,,1.3096283674240112,
137156,,9.86650562286377,,0.47884035110473633
137176,2.9074268214429573,12.18409252166748,-0.6991068720817566,2.6791117191314697
137194,1.2694597899058742,,-1.1635819673538208,
137196,,9.81143856048584,,1.8195933103561401
137215,2.5839341808238996,7.496245384216309,-1.235408067703247,0.849941611289978
137253,5.747684510112155,,,
137254,,4.199429988861084,-0.36152446269989014,-0.28730419278144836
137293,5.4491459448541395,4.532223701477051,0.7469909191131592,-0.5315127968788147
137332,1.7888294051464362,,1.8722656965255737,
137333,,9.057265281677246,,1.659181833267212
140185,2.7167376382212507,7.630321025848389,2.166752576828003,0.5530605912208557
140207,4.006758225886969,10.644620895385742,3.514688014984131,
140208,,,,-1.824381709098816
140247,1.748175010034006,,0.5554547905921936,
140248,,10.836156845092773,,2.056619167327881
140287,4.8177938697713545,5.810727596282959,-2.0039467811584473,0.5746083855628967
140327,5.96966322059169,4.228160381317139,-1.316810965538025,0.6129156351089478
140366,5.029006173333919,,,
140367,,4.778826713562012,0.5363011956214905,-0.14604631066322327
140407,2.250666837422574,7.69735860824585,1.946485996246338,0.6009446382522583
140446,2.4022711021789895,8.291120529174805,2.676717519760132,1.1061211824417114
140486,2.9948404767025565,9.445125579833984,2.698265314102173,2.4827871322631836
140526,2.6574553503697826,11.015722274780273,1.4915876388549805,2.279279947280884
140567,5.510836070300548,14.21916389465332,2.9496564865112305,2.5737667083740234
140607,3.8230991302657675,,3.6990416049957275,
140608,,11.348516464233398,,2.5330653190612793
140647,8.781177018157575,,3.361459255218506,
140648,,17.094600677490234,,-4.134786128997803
140686,1.9095127137213634,10.809821128845215,0.9002198576927185,
140687,,,,-1.2425906658172607
140726,6.2020025895355335,8.676587104797363,-3.466804027557373,-2.166752576828003
140766,3.308192781654482,11.793837547302246,-0.19393034279346466,-0.35434186458587646
140806,1.1436588751341175,9.679757118225098,3.1076738834381104,-0.016759412363171577
140847,5.857265570813826,4.031835556030273,2.0925323963165283,-1.2210428714752197
140885,6.117382061082175,,,
140886,,3.5697548389434814,1.314416766166687,0.08619125932455063
140925,2.7971452124293625,,,
140926,,8.04691219329834,-0.5123591423034668,1.5921441316604614
140965,3.2963914561813277,8.5903959274292,-1.5969325304031372,1.7525556087493896
141004,3.985426102165277,,,
141005,,7.42681360244751,-0.6488286852836609,3.1100680828094482
141043,4.647293796407427,,,
141044,,12.358869552612305,3.315969467163086,3.428496837615967
141083,2.5621843841455623,12.112266540527344,0.16519992053508759,0.7038952708244324
141123,6.51347450975353,11.961431503295898,0.8978256583213806,6.835445880889893
141163,7.760574509895051,,,
141164,,15.533580780029297,-0.11971008777618408,-4.228160381317139
141204,7.713311754535548,16.77617073059082,-2.4612393379211426,-0.5578489899635315
141244,6.0969086114767395,,1.8842366933822632,
141245,,8.695740699768066,,-4.757278919219971
141284,2.3465628465892756,,1.2042834758758545,
141285,,11.140220642089844,,-0.5027823448181152
141323,2.8891876771256633,,-2.27209734916687,
141324,,8.26478385925293,,1.4101848602294922
141363,4.300239272446706,5.95677375793457,-1.6065093278884888,0.3280056416988373
141402,5.550735720421561,,,
141403,,4.321534156799316,0.3734954595565796,-0.3998316824436188
141442,3.9411867834865557,,,
141443,,5.971138954162598,1.4700398445129395,-0.026336219161748886
141482,2.8894043690754376,,,
141483,,7.3238630294799805,2.123656988143921,0.08619125932455063
141522,2.7961527994832225,,2.609679937362671,
141523,,8.346187591552734,,1.4437036514282227
141562,2.781834401657408,10.144232749938965,2.9041666984558105,1.6160861253738403
141602,4.622640471812687,13.579912185668945,1.6831238269805908,2.497152328491211
141641,3.6957073363653206,,1.6352397203445435,
141642,,11.8441162109375,,3.1890766620635986
141681,3.0232905073683143,9.78989028930664,1.1468225717544556,3.624821424484253
141721,7.907899465876026,15.935806274414062,3.0358476638793945,
141722,,,,-3.914519786834717
141760,4.692879806699395,,,
141761,,11.379640579223633,3.5003228187561035,-3.622427225112915
141801,3.7297554332745486,11.836933135986328,-0.950498104095459,-1.070208191871643
141840,2.8065495592393868,,,
141841,,12.284648895263672,1.0845733880996704,0.31124621629714966
190187,1.8462665000803236,9.124302864074707,0.12449848651885986,-0.5099649429321289
190227,3.702196222035655,12.169727325439453,4.228160381317139,0.9481038451194763
190266,4.034558734802396,5.937620162963867,1.5275006294250488,-1.0295066833496094
190306,5.9819327766929185,3.799597978591919,0.3256114423274994,0.33518823981285095
190346,4.69767247458428,5.3342814445495605,-0.6631938815116882,1.3503297567367554
190385,1.9954936400111198,,-0.3280056416988373,
190386,,9.911994934082031,,2.2816741466522217
190425,3.586659477207773,8.736441612243652,-0.8954314589500427,
190426,,,,3.732560396194458
190465,3.3883144399025813,9.208099365234375,1.7884687185287476,4.134786128997803
190505,4.378542092908894,,,
190506,,14.034810066223145,1.5969325304031372,0.9265560507774353
190545,6.391452278742705,11.985373497009277,2.0015525817871094,6.876147270202637
190584,7.602328255045354,,,
190585,,16.158466339111328,1.0678139925003052,-2.8203697204589844
190624,7.501802100796946,,-2.762908697128296,
190625,,16.158466339111328,,-1.3239935636520386
190664,5.226308864945378,7.599195957183838,-1.3096283674240112,-3.157952070236206
190704,3.1072533811759064,9.030928611755371,1.4053963422775269,-1.1563993692398071
190744,1.8224540196022652,10.56800651550293,-1.6160861253738403,2.0254945755004883
190784,2.931602238880936,7.19936466217041,-1.170764684677124,0.272938996553421
190823,6.362325597744801,3.4763808250427246,0.2537853717803955,
190824,,,,-0.05985504388809204
190863,4.290799815707053,5.626373767852783,0.5291185975074768,-0.33518823981285095
190903,2.8229998943451804,7.469909191131592,2.0159177780151367,1.0127472877502441
190942,3.794352254559037,,,
190943,,9.761159896850586,3.7229835987091064,2.382230758666992
190982,2.8963808232817247,,,
190983,,10.917559623718262,2.274491548538208,2.410961151123047
191022,4.43877059583685,14.077905654907227,1.4939818382263184,
191023,,,,-0.20350714027881622
191062,5.510659725066387,11.915942192077637,1.723825216293335,5.566518783569336
191102,1.72390584107049,,,
191103,,10.984597206115723,0.7182605266571045,-0.5027823448181152
191142,8.525893321734312,,,
191143,,15.409082412719727,3.485957622528076,-5.564124584197998
191181,2.4358508081773986,,,
191182,,9.038111686706543,1.2761094570159912,-2.1523873805999756
191221,3.7812851833251453,,,
191222,,9.41639518737793,-1.2114660739898682,-1.9584569931030273
191262,2.691054544044211,,2.5785553455352783,
191263,,12.227188110351562,,0.0933738648891449
191301,0.8903875871074144,,,
191302,,9.696516990661621,2.6431987285614014,0.07661445438861847
191341,6.317028876046142,3.490746021270752,0.6416460275650024,-0.4429273009300232
191380,7.242104275748887,,0.9911994934082031,
191381,,2.47560453414917,,0.15562310814857483
191420,2.178009481116922,,,
191421,,7.793126583099365,0.20350714027881622,0.9409212470054626
191460,3.221182931446806,,,
191461,,10.407594680786133,-0.7996633648872375,2.918531894683838
191501,4.093439920344468,9.787496566772461,0.7326257228851318,4.541800498962402
191541,2.0326525027785745,10.917559623718262,-0.08619125932455063,-0.6943184733390808
191580,7.165887598082974,,,
191581,,12.306197166442871,1.6352397203445435,7.419631004333496
191620,5.253966876392772,14.449007034301758,3.1220390796661377,0.4405331015586853
191660,9.23188203315139,17.7937068939209,-3.4979286193847656,-0.9169792532920837
191699,4.173989663682028,8.255207061767578,-2.403778553009033,
191700,,,,-1.8507179021835327
191739,4.9201831634666355,,,
191740,,8.271966934204102,1.5897499322891235,-3.2321722507476807
191779,2.712866720557031,12.107478141784668,-0.8068459630012512,2.2457611560821533
191819,3.035341156539817,,,
191820,,7.184999465942383,-1.53707754611969,0.9744400978088379
191858,5.282562995531412,4.58968448638916,-0.3711012601852417,
191859,,,,0.047884032130241394
191898,4.862711751293909,5.037400245666504,0.24899697303771973,-0.33039984107017517
191937,3.385452896315556,,,
191938,,6.624756336212158,1.680729627609253,0.6751648783683777
191978,3.022081332179547,8.109161376953125,2.7772738933563232,1.6376339197158813
192017,3.224115732486929,,2.9448680877685547,
192018,,10.177751541137695,,2.535459518432617
192057,4.840796179111973,,,
192058,,14.075511932373047,2.5761611461639404,1.2617442607879639
192097,4.390422124010623,12.315773963928223,2.580949544906616,
192098,,,,3.4620156288146973
192136,3.516280185259354,,,
192137,,10.168174743652344,0.5267243981361389,4.268861770629883
192176,7.8144541013183595,,,
192177,,16.132131576538086,3.141192674636841,-3.28963303565979
192216,3.817726555017942,,1.2545616626739502,
192217,,11.616666793823242,,-2.913743495941162
192256,3.6656460786621547,,-1.1420341730117798,
192257,,8.595184326171875,,-1.534683346748352
192296,0.8056171935349155,9.998186111450195,1.53707754611969,-0.31124621629714966
192335,3.624784528971305,,,
192336,,12.57913589477539,3.8546648025512695,0.20350714027881622
192376,4.778227205848722,5.1116204261779785,1.1252747774124146,
192377,,,,-0.828393816947937
192415,7.032850295318903,,,
192416,,2.8155810832977295,0.07422025501728058,-0.07661445438861847
192455,4.645630060832371,,,
192456,,5.724536418914795,-1.2425906658172607,1.4460978507995605
192495,2.4329505915518745,,-0.5171475410461426,
192496,,9.327810287475586,,2.5234885215759277
192534,3.717041392459443,,,
192535,,9.299078941345215,-0.20350714027881622,4.189853191375732
192575,3.045973737396817,11.496956825256348,1.644816517829895,
192576,,,,3.1435868740081787
192614,3.479834913086951,,,
192615,,12.433089256286621,0.8331822156906128,3.1100680828094482
192654,4.42158146075991,12.406753540039062,2.540247917175293,4.23773717880249
192694,8.93684907690288,18.16720199584961,-1.1899182796478271,-1.2090718746185303
192733,3.2618906672507673,,,
192734,,11.116278648376465,-2.63362193107605,0.6488286852836609
192773,7.017282404881074,,,
192774,,6.885724067687988,1.3982137441635132,-4.663905143737793
192813,2.1918930628162547,11.796232223510742,0.1604115068912506,2.056619167327881
192853,1.96627858368504,8.796297073364258,-1.5969325304031372,1.3694833517074585
192892,4.274999357524623,,,
192893,,5.750872611999512,-1.1109095811843872,0.5626373887062073
192932,6.0431546538348675,,,
192933,,3.8738183975219727,1.0031704902648926,-0.3495534360408783
192972,3.6573764989291755,,,
192973,,6.3973069190979,2.0805611610412598,0.751779317855835
193012,2.6787120055593934,8.027758598327637,2.7126305103302,1.1755530834197998
193051,2.565335542471021,,,
