relative_time,LinearAccelerometerSensor,AccX,AccY,AccZ
0,5.225332893827757,,3.021482467651367,-4.405331134796143
1,,9.169792175292969,,
20,3.5697416354167606,,0.768538773059845,-3.60566782951355
21,,9.57201862335205,,
40,3.0399355382108104,10.120290756225586,-2.0231003761291504,-1.9129672050476074
59,,,-3.955221176147461,
60,4.375990619223964,,,-0.30885201692581177
61,,9.399636268615723,,
80,4.306196387944118,8.010998725891113,-3.5170822143554688,0.6272808313369751
99,,,-1.2258312702178955,
100,2.6056622800770177,7.7213006019592285,,-0.6512228846549988
119,,,0.8547300100326538,
120,2.1671368626713616,7.9176249504089355,,-0.9265560507774353
139,,,1.5322890281677246,
140,2.337908267509925,8.056488990783691,,-0.7086837291717529
159,,,0.706289529800415,
160,2.215800299119073,7.800309181213379,,-0.8906430602073669
179,,,-0.5889736413955688,
180,2.39202919404449,7.522581577301025,,-0.8882488012313843
199,,,-1.314416766166687,
200,2.3665262941809466,7.709329605102539,,-0.6775590777397156
219,1.55811457330954,,-1.113303780555725,0.0
220,,8.47786808013916,,
239,1.5001259591940526,,-0.8834604024887085,
240,,8.676587104797363,,0.507570743560791
259,1.8469554386598015,8.248024940490723,-0.9624691009521484,0.4812345504760742
278,,,-1.625662922859192,
279,2.6407843547342575,,,0.9002198576927185
280,,7.805097579956055,,
299,2.681326762347688,8.269572257995605,-1.721431016921997,1.4532804489135742
318,,,-0.9026140570640564,
319,1.8484223856110518,9.694122314453125,,1.4508862495422363
338,,,-0.49320554733276367,
339,2.1602799723342363,11.049241065979004,,1.4269442558288574
358,,,-0.9193734526634216,
359,2.412607686698057,11.051634788513184,,1.7190368175506592
378,1.7658916035798664,,-1.3479355573654175,1.0869675874710083
379,,10.587160110473633,,
398,,,-0.646434485912323,
399,2.707357631895879,10.72602367401123,,2.3918075561523438
418,,,-0.5626373887062073,
419,3.5415232610653558,10.8720703125,,3.270479440689087
438,4.041832805771358,11.511322021484375,-0.646434485912323,3.5960910320281982
458,3.350704198811003,12.358869552612305,-1.4772224426269531,1.9823989868164062
478,4.04269747353779,,-2.161964178085327,-1.2713210582733154
479,,13.385981559753418,,
497,,,-4.637568473815918,
498,5.3151888157634435,13.151350021362305,,-1.8794482946395874
517,,,-3.1100680828094482,
518,5.0271225579011105,10.764330863952637,,-4.587290287017822
538,2.3335303722928242,8.860940933227539,-1.680729627609253,-2.233790159225464
557,,,-0.8858546018600464,
558,3.1651067070351586,8.841787338256836,,-3.1914708614349365
577,,,-0.667982280254364,
578,3.7587102820806955,10.467450141906738,,-3.8067808151245117
597,,,-0.19153612852096558,
598,3.313975599301557,11.161767959594727,,-2.935291290283203
617,,,-0.3280056416988373,
618,1.5651519395727573,10.132261276245117,,-1.2856862545013428
637,,,-1.1755530834197998,
638,0.8698723616638825,8.899248123168945,,-0.6057330369949341
657,1.4900256569464718,,-1.9704279899597168,-0.8331822156906128
658,,8.418013572692871,,
676,,,-2.2625205516815186,
677,1.5596114352065082,,,
678,,8.559270858764648,,-0.8212111592292786
696,,,-1.9991583824157715,
697,1.4527228014147242,8.537723541259766,,-0.8164227604866028
716,,,-0.9576807022094727,
717,1.3417719987231873,8.4108304977417,,-0.9624691009521484
736,,,0.1412578970193863,
737,2.081978917135153,8.051700592041016,,-1.2497732639312744
756,,,0.38067805767059326,
757,2.4785798818256435,,,
758,,7.659051418304443,,-1.256955862045288
776,,,0.6655880808830261,
777,2.32837598843051,7.948749542236328,,-0.9457096457481384
796,,,0.6775590777397156,
797,2.209678372243016,8.17380428314209,,-0.29209262132644653
816,2.2525336517292813,8.552088737487793,0.8810662031173706,0.1412578970193863
836,2.56545412932661,8.489839553833008,1.1755530834197998,0.363918662071228
855,,,1.501164436340332,
856,2.8799134437481704,,,0.5722141861915588
857,,8.403648376464844,,
876,2.572853849521919,8.834604263305664,1.3551181554794312,0.667982280254364
896,2.180270865525223,9.892841339111328,1.0414776802062988,0.7781155705451965
915,,,0.9361328482627869,
916,2.1477745559206864,10.879252433776855,,0.4908113479614258
935,,,0.912190854549408,
936,2.333530985317323,11.434707641601562,,0.31603461503982544
955,,,0.4405331015586853,
956,3.068561860511316,12.131420135498047,,1.1348515748977661
975,,,0.12449848651885986,
976,3.8865591351883375,12.27507209777832,,2.298433542251587
995,3.970253246695418,,-0.5363011956214905,
996,,10.83855152130127,,3.1914708614349365
1015,,,-0.8858546018600464,
1016,3.1908435115284917,9.636661529541016,,2.561795711517334
1035,5.399612144387266,,-0.1628057211637497,
1036,,10.457873344421387,,-5.774814605712891
1055,10.083584700884993,16.314090728759766,2.9879636764526367,-7.632715225219727
1074,,,4.091690540313721,
1075,7.822591139060398,15.275007247924805,,-4.565742492675781
1094,,,1.987187385559082,
1095,3.628336193368042,10.553641319274902,,-3.780444383621216
1115,3.234654658661914,9.732429504394531,-0.031124621629714966,-3.8283286094665527
1134,,,-2.540247917175293,
1135,3.9057834194003505,9.232041358947754,,-2.806004285812378
1154,4.966287638562183,,-4.240131378173828,-0.4572925269603729
1155,,8.99740982055664,,
1174,5.020733569830571,,-3.8570590019226074,
1175,,7.781155586242676,,0.7613561153411865
1194,2.4103940478565704,,-1.2066776752471924,-0.40462008118629456
1195,,7.994239330291748,,
1214,1.5784677567619059,8.525752067565918,0.8882488012313843,-1.139639973640442
1233,,,1.436521053314209,
1234,2.5248688692091834,7.762001991271973,,-1.1779472827911377
1254,2.961229616918656,6.98628044128418,0.6584054827690125,-1.2521674633026123
1273,,,-1.1085153818130493,
1274,3.0394148830689267,6.919242858886719,,-0.5913678407669067
1293,,,-1.6280571222305298,
1294,3.0569613449952096,7.0772600173950195,,-0.6751648783683777
1313,1.9133019629619363,,-1.1348515748977661,
1314,,8.075642585754395,,-0.42377370595932007
1333,,,-0.6655880808830261,
1334,1.4341371426303937,8.664615631103516,,0.15322890877723694
1353,,,-0.7709329724311829,
1354,1.7619995434746383,8.480262756347656,,0.40940847992897034
1372,2.6259543182804146,,-1.4772224426269531,0.7972691655158997
1373,,7.936778545379639,,
1392,2.840003091783587,8.367734909057617,-1.4317326545715332,1.5466543436050415
1412,1.9472473817083613,9.706093788146973,-0.6153098344802856,1.278503656387329
1432,2.1135290991226343,10.99656867980957,-0.7996633648872375,1.0295066833496094
1452,,,-1.316810965538025,
1453,2.584974587940913,11.209651947021484,,1.3048399686813354
1472,2.5179349351980136,,-0.7637503147125244,1.158793568611145
1473,,11.583148002624512,,
1492,3.3154925378339515,11.461043357849121,-0.4644751250743866,2.365471363067627
1531,,,-1.1803414821624756,
1532,4.299962048030419,11.688492774963379,,3.3877954483032227
1571,9.161370521863374,,-4.651933670043945,-5.796362400054932
1572,,16.127342224121094,,
1736,1.4584719001696929,8.470685958862305,-0.5410895943641663,-0.8044517636299133
1770,,,-2.205059766769409,
1771,1.5636339269260187,8.75080680847168,,-0.586579442024231
1810,1.9325220702417438,8.11634349822998,0.11013327538967133,-0.7709329724311829
1850,2.633188735838847,7.594407558441162,0.7829039692878723,-0.7086837291717529
1889,,,0.35913026332855225,
1890,1.6582476247111677,8.841787338256836,,0.43335050344467163
1929,,,1.3838485479354858,
1930,2.6604516401708,8.932766914367676,,1.2282254695892334
1969,1.7057979501925495,9.428366661071777,0.35434186458587646,1.1276689767837524
2009,,,0.31603461503982544,
2010,2.4521931621767616,11.3269681930542,,1.5610195398330688
2049,,,-0.08379705995321274,
2050,3.6729697036303772,11.580753326416016,,2.96162748336792
2089,,,1.4197616577148438,
2090,6.338769921670375,12.18648624420166,,-5.925649166107178
2129,5.488964453694866,13.84566879272461,2.762908697128296,-3.0142998695373535
2169,,,0.23702596127986908,
2170,3.679443999249849,9.227252960205078,,-3.864241600036621
2209,3.993740668009808,9.619902610778809,-3.3877954483032227,-0.17238251864910126
2249,1.2002395609310512,,-0.3519476354122162,
2250,,8.89445972442627,,-0.6512228846549988
2288,,,2.1811177730560303,
2289,3.3687879117909616,7.3454108238220215,,-1.5131354331970215
2328,3.816004408859809,,-0.7493851184844971,
2329,,6.038176536560059,,-0.5506663918495178
2368,3.0378974309185045,,-1.987187385559082,
2369,,7.328651428222656,,-0.06224924325942993
2408,1.55244544837926,8.920795440673828,-1.2497732639312744,0.21308395266532898
2447,,,-1.53707754611969,
2448,2.5629411643274604,9.040505409240723,,1.4867992401123047
2488,1.798065123132913,10.139444351196289,-0.7661445140838623,1.1420341730117798
2527,2.6236865072578124,,-0.6655880808830261,
2528,,11.379640579223633,,1.5921441316604614
2567,4.750891953094238,12.354081153869629,-1.5705963373184204,3.514688014984131
2601,5.037301351639245,11.520898818969727,-1.8171991109848022,4.481945514678955
2610,2.494801839171969,,-2.8826189041137695,
2611,,11.252747535705566,,0.7230489253997803
2626,,,-6.110002517700195,
2627,9.16229152884639,14.832079887390137,,-5.815515995025635
2646,7.604694783583681,13.074735641479492,-2.1284453868865967,-6.9910688400268555
2665,,,0.524330198764801,
2666,2.2619651963231977,9.119514465332031,,-1.2713210582733154
2685,,,0.5961562395095825,
2686,3.446743830020612,8.834604263305664,,-3.0142998695373535
2705,,,-0.8331822156906128,
2706,4.962149404445229,10.802638053894043,,-5.2696380615234375
2725,,,-0.5817909836769104,
2726,4.277653206556885,12.143390655517578,,-3.88818359375
2745,,,-0.19632454216480255,
2746,1.8709338285079773,10.72602367401123,,-0.9002198576927185
2765,,,0.06224924325942993,
2766,1.7948748527402996,8.954314231872559,,-0.8906430602073669
2785,2.3757222733708647,,-0.6057330369949341,
2786,,7.491456985473633,,-1.2186486721038818
2805,,,-1.4844050407409668,
2806,2.3546789056511,7.359776020050049,,-0.6584054827690125
2825,,,-1.6352397203445435,
2826,1.8654475704402746,7.972691535949707,,-0.47884035110473633
2845,1.5729360347675345,,-1.0103530883789062,
2846,,8.13789176940918,,-0.8451532125473022
2865,2.125756185286414,,0.08140286058187485,
2866,,7.838616371154785,,-1.0127472877502441
2884,,,0.4141969084739685,
2885,2.427381592680552,7.663839817047119,,-0.8188169598579407
2904,,,0.5410895943641663,
2905,2.478840162644804,7.687781810760498,,-0.6248866319656372
2925,2.2962276039422673,7.953537940979004,0.2322375625371933,-0.031124621629714966
2944,,,0.17477671802043915,
2945,2.1279897414368905,8.47786808013916,,0.3663128614425659
2964,,,0.7445967197418213,
2965,2.6421628006785096,,,0.849941611289978
2966,,8.585607528686523,,
2984,,,1.5298948287963867,
2985,3.2324381018286057,9.006986618041992,,1.3287819623947144
3004,,,1.2425906658172607,
3005,3.166396949391103,9.773131370544434,,1.7118542194366455
3024,,,1.0797849893569946,
3025,2.571693304603388,10.594342231750488,,1.0462661981582642
3044,,,1.115697979927063,
3045,2.6485780211672463,11.15697956085205,,0.9241618514060974
3064,3.3657682397197015,11.803414344787598,1.0342950820922852,1.6496049165725708
3084,,,0.5363011956214905,
3085,4.005966266933799,12.035652160644531,,2.604891538619995
3104,2.8674479270138007,11.12346076965332,-0.31124621629714966,1.9584569931030273
3124,7.653811942408558,12.006921768188477,0.5841852426528931,-7.8314337730407715
3144,8.564482299337424,,2.2002713680267334,
3145,,17.604564666748047,,-3.35667085647583
3163,5.087448434779274,14.573505401611328,1.843535304069519,-0.730231523513794
3183,5.523896237414641,9.583989143371582,1.4772224426269531,-5.91128396987915
3203,3.218451328679389,9.93354320526123,0.19871874153614044,-3.6846764087677
3223,2.547588318706079,9.646238327026367,-1.7357962131500244,-1.599326729774475
3242,,,-4.235342979431152,
3243,4.889789936569801,8.81784439086914,,0.06464344263076782
3262,,,-4.170699596405029,
3263,4.97468260706305,7.936778545379639,,-0.08140286058187485
3282,,,-1.764526605606079,
3283,2.8442322039232284,7.977479934692383,,-1.2952631711959839
3302,,,0.19153612852096558,
3303,1.5476345933056557,8.360552787780762,,-1.1994950771331787
3322,2.2860014045423998,,1.4700398445129395,-1.278503656387329
3323,,8.125920295715332,,
3342,2.6906192331994405,,1.403002142906189,
3343,,7.613561630249023,,-1.3718775510787964
3362,2.6155286399747797,7.184999465942383,0.13168109953403473,-1.1276689767837524
3382,,,-0.7733271718025208,
3383,2.9883910314801927,6.833051681518555,,-1.259350061416626
3402,2.796694105041753,,-1.1252747774124146,-0.7182605266571045
3403,,7.062894821166992,,
3422,2.4011425954219803,,-1.278503656387329,
3423,,7.682993412017822,,-0.043095629662275314
3442,1.7973874895434037,,-1.280897855758667,
3443,,8.53293514251709,,0.07422025501728058
3462,,,-1.6974890232086182,
3463,2.1344233986322645,8.729259490966797,,0.40940847992897034
3482,,,-1.7741034030914307,
3483,2.8368669988566015,9.174580574035645,,1.4245500564575195
3502,2.8915580274711608,,-1.1348515748977661,
3503,,10.259154319763184,,1.7597382068634033
3522,2.7204085804702287,10.788272857666016,-1.2761094570159912,1.4245500564575195
3542,2.4494308550190365,10.11789608001709,-1.290474772453308,1.3766659498214722
3562,2.246519363547409,,-0.3711012601852417,1.3096283674240112
3563,,10.467450141906738,,
3581,,,-0.33518823981285095,
3582,3.51689687822071,11.45146656036377,,2.315192937850952
3601,,,-0.5339069962501526,
3602,4.433476733037269,12.461819648742676,,2.8131868839263916
3621,,,-0.9792284965515137,
3622,5.07432437402096,12.258312225341797,,3.8115692138671875
3641,3.011045783985497,,-1.9153614044189453,
3642,,12.433089256286621,,-1.3551181554794312
3661,,,-5.810727596282959,
3662,7.457884734175767,13.172897338867188,,-4.946420669555664
3681,8.133115031746994,,-3.0813376903533936,
3682,,11.264719009399414,,-8.245630264282227
3701,1.2743725766266012,,-0.3016694188117981,-1.5490485429763794
3702,,9.607931137084961,,
3721,2.111166186478732,,0.21308395266532898,
3722,,9.560047149658203,,-2.118868589401245
3740,,,-0.9193734526634216,
3741,4.712415270461042,11.331756591796875,,-4.924872875213623
3760,,,-0.6631938815116882,
3761,3.9471655997655657,,,-3.708618402481079
3762,,11.865663528442383,,
3780,,,-0.40701428055763245,
3781,1.4919830501759492,10.599130630493164,,-0.9816226959228516
3800,,,-0.7230489253997803,
3801,1.0485580920751887,,,
3802,,8.927978515625,,-0.7374141216278076
3820,2.167570940240559,,-1.3024457693099976,-1.0845733880996704
3821,,7.594407558441162,,
3841,2.304648913044293,7.536946773529053,-1.8602946996688843,-0.5267243981361389
3859,,,-1.8339585065841675,
3860,1.8951587385057014,8.02536392211914,,-0.5674257874488831
3879,1.9355051168947177,,-0.9959878921508789,
3880,,7.790732383728027,,-0.8882488012313843
3899,2.6667574231280566,7.285555839538574,0.2082955539226532,-1.173158884048462
3919,,,0.7038952708244324,
3920,3.122373774399943,6.971915245056152,,-1.1875240802764893
3939,,,0.8643068075180054,
3940,2.895178100958055,7.275979042053223,,-0.9241618514060974
3959,,,0.3878606855869293,
3960,2.111144503390703,8.04691219329834,,-0.24660277366638184
3979,,,0.3711012601852417,
3980,1.8019806349345708,8.712499618530273,,0.11013327538967133
3999,,,1.0630255937576294,
4000,2.664911308315713,8.96149730682373,,0.993593692779541
4019,,,1.5610195398330688,
4020,3.381660388572835,9.279925346374512,,1.7549498081207275
4039,2.6660658835120805,9.679757118225098,1.3670891523361206,1.1899182796478271
4059,,,1.4221558570861816,
4060,2.1249557939307038,10.029311180114746,,0.47884035110473633
4079,2.3844968752129643,10.869675636291504,1.0678139925003052,1.0079588890075684
4099,3.6853794530898494,12.306197166442871,0.6392518281936646,1.9632453918457031
4119,4.225528950281606,,-0.0933738648891449,
4120,,12.339715957641602,,2.808398485183716
4139,4.750654275907092,,-1.3670891523361206,4.072536945343018
4140,,10.199298858642578,,
4158,,,-0.21787235140800476,
4159,1.7939353448365571,10.8505220413208,,-1.7525556087493896
4178,11.454302676491812,14.45619010925293,1.7118542194366455,-10.60152530670166
4198,8.351377965103461,16.876728057861328,2.3582887649536133,-4.177882194519043
4217,,,1.1228805780410767,
4218,3.0991979853610223,11.899182319641113,,-2.4588451385498047
4237,,,-0.5003881454467773,
4238,3.5100632818880753,10.165780067443848,,-3.7158010005950928
4257,,,-2.5258827209472656,
4258,3.7275929176011946,9.983820915222168,,-2.4851813316345215
4277,,,-4.0078935623168945,
4278,4.6065750152333,9.210494041442871,,0.1843535304069519
4297,3.465508535920323,,-2.5115175247192383,0.4189853072166443
4298,,8.226476669311523,,
4317,,,-0.31364041566848755,
4318,1.6795279493626862,8.317456245422363,,-0.6943184733390808
4337,1.754024034381127,,1.2880805730819702,-1.4437036514282227
4338,,8.966285705566406,,
4357,,,2.049436569213867,
4358,3.0368086981890996,8.29590892791748,,-2.1332337856292725
4377,,,1.5298948287963867,
4378,3.29808188671381,7.33583402633667,,-2.0207061767578125
4397,,,-0.05506663769483566,
4398,3.415519351145491,6.457161903381348,,-1.3072341680526733
4417,3.779867881201778,6.196194171905518,-1.381454348564148,-0.44532153010368347
4437,3.2289315086796346,,-1.0678139925003052,
4438,,6.641515731811523,,-0.6919242739677429
4457,,,-0.6751648783683777,
4458,2.3350028014727826,7.479485988616943,,-0.40222588181495667
4477,,,-0.45010992884635925,
4478,1.608655305697155,8.20732307434082,,-0.3998316824436188
4497,,,-1.216254472732544,
4498,1.9957647780375751,8.518569946289062,,0.4644751250743866
4517,2.8982945327252874,,-1.6424223184585571,
4518,,9.442731857299805,,1.702277421951294
4537,2.6702116311599506,,-1.6735470294952393,
4538,,10.630255699157715,,1.3048399686813354
4557,2.864549800792135,10.946290016174316,-1.9105730056762695,1.2880805730819702
4576,,,-2.1045033931732178,
4577,2.785847325344552,10.438719749450684,,1.3263877630233765
4596,,,-1.2665326595306396,
4597,2.9415991569171327,11.14500904083252,,1.7717092037200928
4616,,,-0.8978256583213806,
4617,3.9516481799772953,11.961431503295898,,2.63362193107605
4636,,,-0.8068459630012512,
4637,4.471494672104746,12.598289489746094,,2.896984100341797
4656,4.639439081291366,,-0.6248866319656372,3.5697548389434814
4657,,12.073959350585938,,
4676,2.6636606399963787,,-0.6248866319656372,2.1499931812286377
4677,,10.826580047607422,,
4696,5.620841969039689,,-3.8091750144958496,-4.680664539337158
4697,,11.420342445373535,,
4716,11.16895927314256,11.21444034576416,-5.418078422546387,-10.371682167053223
4736,2.8626856581270137,10.541669845581055,-1.192312479019165,-3.0765492916107178
4755,,,0.6512228846549988,
4756,1.8939831756964387,9.627084732055664,,-1.1420341730117798
4775,,,-0.35913026332855225,
4776,3.695923962318719,11.128249168395996,,-3.706224203109741
4795,5.064273476494586,,-0.2801215946674347,-4.046200752258301
4796,,13.041216850280762,,
4815,,,-0.4189853072166443,
4816,2.423765859488056,11.805809020996094,,-0.8164227604866028
4834,,,-0.49559974670410156,
4835,1.043176523150981,10.002974510192871,,-0.28730419278144836
4854,,,-1.3718775510787964,
4855,2.1081529256156877,7.694964408874512,,-1.0462661981582642
4874,,,-1.8531121015548706,
4875,3.264369303380446,6.536170482635498,,-0.5578489899635315
4895,2.9427294344975388,7.0317702293396,-2.049436569213867,-0.08140286058187485
4914,,,-1.5849615335464478,
4915,2.8175768489562394,7.000645637512207,,-0.7589619159698486
4934,,,-0.6751648783683777,
4935,2.838070742305427,,,-1.0558429956436157
4936,,6.916848659515381,,
4954,2.8474054003668123,,0.021547814831137657,
4955,,7.0341644287109375,,-1.2449848651885986
4987,,,0.6248866319656372,
4988,3.0221761590900464,7.048529624938965,,-1.072602391242981
4994,,,0.9313444495201111,
4995,2.3715759490895088,8.034940719604492,,-0.9983820915222168
5014,1.9978720550276732,,1.2761094570159912,
5015,,9.569623947143555,,-0.8523358106613159
5034,2.8867577329488934,10.532093048095703,1.8555063009262085,0.05027823522686958
5054,2.928028664485098,,1.6639702320098877,
5055,,10.654197692871094,,0.5386953949928284
5074,2.479478917907088,10.491392135620117,0.8762778043746948,0.8882488012313843
5094,2.5996823777080578,,0.24420857429504395,
5095,,10.836156845092773,,1.3287819623947144
5114,,,0.12449848651885986,
5115,2.5361597928568234,10.649409294128418,,1.5131354331970215
5134,3.368306056054862,,-0.24181437492370605,2.389413356781006
5135,,11.15697956085205,,
5154,,,-0.6440402865409851,
5155,3.813548584867258,11.27190113067627,,2.894589900970459
5182,2.0604131139937407,10.529699325561523,-0.24660277366638184,1.3910311460494995
5193,,,0.48602294921875,
5195,4.315624929285843,11.681309700012207,,-4.352658748626709
5214,6.480227106612197,15.272612571716309,0.9672574996948242,-3.8546648025512695
5233,,,2.8778305053710938,
5234,6.306051756632213,15.179238319396973,,-2.1715409755706787
5253,,,3.141192674636841,
5254,5.116931798239256,11.051634788513184,,-4.532223701477051
5273,,,1.699883222579956,
5274,4.839526691781322,9.526528358459473,,-5.193023681640625
5293,2.6814843206564287,9.825803756713867,-0.35913026332855225,-3.0861260890960693
5313,,,-3.1028854846954346,
5314,3.6543592471126876,10.156203269958496,,-0.751779317855835
5332,,,-4.525041103363037,
5333,5.194648321619351,,,
5334,,9.01895809173584,,0.8355764150619507
5353,,,-2.6144683361053467,
5354,3.2029929529279872,8.506598472595215,,-0.7326257228851318
5372,,,0.21308395266532898,
5373,1.8529337380631257,8.279149055480957,,-1.5658079385757446
5393,2.6051636478618985,7.960720539093018,1.7621324062347412,-1.3455413579940796
5412,,,1.723825216293335,
5413,2.9921777789802113,7.393294811248779,,-1.1492167711257935
5432,,,0.3687070608139038,
5433,3.0229994976561922,6.821080684661865,,-1.1037269830703735
5452,3.3853035932388686,,-1.5490485429763794,
5453,,6.660669326782227,,-0.6967126727104187
5472,,,-1.7717092037200928,
5473,2.9554182564084734,7.168240070343018,,-0.8595184087753296
5492,2.1193989257901933,7.781155586242676,-1.1252747774124146,-0.3926490843296051
5512,1.6615355741748827,8.2312650680542,-0.3471592366695404,-0.22266076505184174
5531,,,-0.47405192255973816,
5532,1.6123324137105337,8.31985092163086,,-0.15083470940589905
5551,,,-1.4508862495422363,
5552,2.2315066406370003,8.322244644165039,,0.5650315880775452
5572,2.7155964418584326,8.834604263305664,-1.5203180313110352,1.4939818382263184
5591,,,-0.689530074596405,
5592,2.2030803053630756,9.758766174316406,,1.381454348564148
5611,,,-0.8188169598579407,
5612,1.898951896395701,10.316615104675293,,1.0438719987869263
5631,,,-1.5682021379470825,
5632,2.1089032811306967,10.54645824432373,,1.0007762908935547
5651,,,-1.3886369466781616,
5652,2.4968766729280025,11.51611042022705,,0.9983820915222168
5671,,,-0.689530074596405,
5672,3.847450026199374,12.009315490722656,,2.58813214302063
5691,,,-0.2801215946674347,
5692,4.196145314219573,11.985373497009277,,3.066972494125366
5710,,,-1.3000515699386597,
5711,3.8485291086399265,11.78665542602539,,2.894589900970459
5730,,,-3.136404275894165,
5731,4.946629449819175,13.840880393981934,,-2.0398597717285156
5750,,,-4.716577529907227,
5751,7.9928268221656635,15.356410026550293,,-4.687847137451172
5771,3.6840609014573813,11.741165161132812,-1.1540051698684692,-3.361459255218506
5790,,,-0.6033388376235962,
5791,2.33040410053483,8.712499618530273,,-2.1811177730560303
5811,3.9664206089242997,9.244012832641602,-1.039083480834961,-4.062960147857666
5830,,,-1.1348515748977661,
5831,4.631344747668104,11.367670059204102,,-4.393360137939453
5850,3.228389786000377,11.66455078125,-0.021547814831137657,-2.032677173614502
5870,,,0.4620809257030487,
5871,2.15628593525451,9.859322547912598,,-0.6009446382522583
5890,1.9797498613394346,,-0.33997663855552673,
5891,,8.288725852966309,,-0.9385270476341248
5910,2.077901154128691,7.6997528076171875,-1.3646949529647827,-0.7924807667732239
5930,1.8050372953075435,,-1.9345149993896484,
5931,,8.04930591583252,,-0.24660277366638184
5949,,,-1.5322890281677246,
5950,1.6777424040525646,8.101978302001953,,-0.5626373887062073
5969,,,-0.3974374830722809,
5970,2.0579572413815446,7.82185697555542,,-0.8307880163192749
5989,,,0.4189853072166443,
5990,2.8513310586728338,7.247248649597168,,-0.5746083855628967
6010,3.2949712237431465,6.907271862030029,0.8068459630012512,-0.5051765441894531
6048,,,0.2106897532939911,
6050,2.0077645262690385,8.281543731689453,,0.35434186458587646
6088,1.672932370667563,9.141061782836914,0.16759411990642548,0.6536170840263367
6269,5.707776490313798,7.728483200073242,-1.0678139925003052,4.788403511047363
6308,,,4.402936935424805,
6309,11.308931746891895,17.362751007080078,,-7.395689010620117
6355,4.618462762431226,12.090718269348145,-0.3902548849582672,-4.795586109161377
6388,,,-3.002328872680664,
6389,3.1216107108631888,9.794678688049316,,-1.7764976024627686
6428,4.743262682826653,6.246472358703613,-2.7724854946136475,1.0055646896362305
6468,2.820534821515651,7.405265808105469,0.7254431247711182,-1.7310078144073486
6507,,,0.5410895943641663,
6508,2.4915948719240735,7.589619159698486,,-1.316810965538025
6547,,,-1.5466543436050415,
6548,2.110569255568281,7.7763671875,,-0.7565677165985107
6587,,,-1.1875240802764893,
6588,1.4059845567888833,8.889671325683594,,0.18914192914962769
6627,,,-2.276885747909546,
6628,2.753843049751306,,,1.2042834758758545
6629,,8.59997272491455,,
6668,2.6676706172645823,10.994174003601074,-0.6584054827690125,1.5394717454910278
6707,,,-0.47884035110473633,
6708,1.2825883063092147,10.558429718017578,,0.181959331035614
6747,,,-0.8068459630012512,
6748,4.086976716029609,11.73398208618164,,2.9903578758239746
6786,,,-2.6599581241607666,
6787,4.256520822566178,,,3.40216064453125
6788,,11.073183059692383,,
6827,9.79104387182989,15.186421394348145,-6.045359134674072,-7.043741226196289
6866,,,-0.6631938815116882,
6867,2.4563686041309745,7.996633529663086,,-2.0207061767578125
6907,4.169247374825024,11.283872604370117,-2.1356279850006104,-4.278438568115234
6946,,,0.9959878921508789,
6947,2.7394509422503512,9.782708168029785,,-0.5961562395095825
6986,2.617960892463169,,-0.18914192914962769,-1.2282254695892334
6987,,7.496245384216309,,
7026,1.351785189413792,,-1.4245500564575195,
7027,,8.367734909057617,,-0.811634361743927
7065,,,-0.10295066982507706,
7066,2.347574902234291,7.575253963470459,,-0.7924807667732239
7105,,,0.23702596127986908,
7106,2.6461435471549266,7.371747016906738,,-0.4572925269603729
7147,2.0324921551279695,,0.35673606395721436,0.023942016065120697
7148,,8.315062522888184,,
7165,2.2229096011830394,8.401253700256348,0.8906430602073669,-0.05267243832349777
7185,2.1966687557382256,9.042900085449219,1.1971008777618408,0.31364041566848755
7205,2.4534844785066796,10.503362655639648,0.8906430602073669,1.170764684677124
7225,3.3192085136159117,11.88002872467041,0.6799532771110535,1.6711528301239014
7244,,,0.8930372595787048,
7245,2.6277626577062847,11.365275382995605,,1.1851298809051514
7264,,,1.1444283723831177,
7265,2.2879896546643463,10.773907661437988,,1.1851298809051514
7284,,,0.7374141216278076,
7285,3.157028857529717,10.96544361114502,,2.564189910888672
7304,3.277058421867024,,-0.011971008032560349,3.002328872680664
7305,,10.673351287841797,,
7324,1.337130097906489,,0.1867477297782898,-0.45489832758903503
7325,,11.099518775939941,,
7344,6.762192628542004,,0.014365210197865963,-6.1315507888793945
7345,,13.024456977844238,,
7364,7.017851274516329,,1.6615760326385498,
7365,,16.543933868408203,,-1.6352397203445435
7383,,,2.4444799423217773,
7384,5.276868277815084,,,
7385,,14.45858383178711,,-1.558625340461731
7404,,,2.276885747909546,
7405,5.3789011083286065,9.411606788635254,,-5.461174011230469
7424,4.659395525124037,9.251194953918457,1.4173674583435059,-5.003881454467773
7443,,,-0.6775590777397156,
7444,2.514379821059659,9.222464561462402,,-2.5665841102600098
7463,,,-3.6727054119110107,
7464,4.454247477089503,8.65743350982666,,-0.14844051003456116
7483,5.393625502403802,,-4.285621166229248,
7484,,7.484274387359619,,0.3974374830722809
7503,,,-2.0015525817871094,
7504,2.9064942944305137,,,-0.8547300100326538
7505,,8.135497093200684,,
7525,1.4506812928604271,8.516175270080566,0.31364041566848755,-1.3048399686813354
7543,,,1.4173674583435059,
7544,2.2514891464917213,8.094796180725098,,-1.534683346748352
7562,,,1.0797849893569946,
7563,2.617090844034917,,,
7564,,7.412448406219482,,-1.3623007535934448
7583,2.406901283804142,,-0.40701428055763245,-1.0630255937576294
7584,,7.412448406219482,,
7603,2.333164061355508,7.800309181213379,-1.338358759880066,-1.1300631761550903
7623,1.9037347051816367,,-1.4077905416488647,-0.9768342971801758
7624,,8.26239013671875,,
7643,1.4191470124247683,,-0.9552865028381348,
7644,,8.576030731201172,,-0.4429273009300232
7662,,,-0.9145850539207458,
7663,1.6909221282299765,8.38449478149414,,-0.11252748221158981
7682,2.2466191216408196,8.10437297821045,-1.4676456451416016,0.12210428714752197
7701,,,-1.8626888990402222,
7702,2.5735935036508177,8.157045364379883,,0.4429273009300232
7721,2.321079217383138,,-1.5083470344543457,
7722,,8.951920509338379,,0.933738648891449
7742,2.2558336925283182,10.541669845581055,-0.9193734526634216,1.0869675874710083
7762,,,-0.6177040338516235,
7763,2.728966994419027,11.57357120513916,,1.0582371950149536
7782,1.836833199683818,10.795455932617188,-0.9409212470054626,0.5434837937355042
7802,1.1573662395926487,,-0.29209262132644653,0.07422025501728058
7803,,10.450690269470215,,
7822,2.836262665909873,11.202469825744629,0.16519992053508759,1.5873557329177856
7842,3.8143432413848317,11.504138946533203,-0.40222588181495667,2.691082715988159
7862,,,-1.9033904075622559,
7863,4.3685198066981075,,,3.2154128551483154
7864,,11.422736167907715,,
7881,,,-3.2130186557769775,
7882,3.8345275898287916,12.63899040222168,,-0.4141969084739685
7901,,,-5.044582843780518,
7902,6.4042125904601725,14.480132102966309,,-1.3192051649093628
7922,6.56721167586036,,-3.2968156337738037,-6.13633918762207
7923,,12.196063041687012,,
7941,1.927921243594428,,-2.2673089504241943,-1.0414776802062988
7942,,8.346187591552734,,
7961,,,-1.8171991109848022,
7962,3.259466176938481,7.886500358581543,,-3.050212860107422
7982,4.360104079447893,9.564835548400879,-1.9297266006469727,-4.733336925506592
8001,3.945405924984504,,-0.23702596127986908,-3.823540210723877
8002,,11.312602996826172,,
8021,,,0.9002198576927185,
8022,2.929436024363291,11.109095573425293,,-1.2689268589019775
8041,,,0.646434485912323,
8042,2.1833799527071096,9.643844604492188,,-1.0079588890075684
8061,1.9242208167191626,,-0.6272808313369751,-1.7334020137786865
8062,,8.312667846679688,,
8081,1.4954992960906213,8.362946510314941,-1.5059528350830078,-1.3407529592514038
8100,1.3649817848387535,,-1.6974890232086182,
8101,,8.422801971435547,,-0.8259995579719543
8119,1.4955804407390025,,-1.2425906658172607,-0.9002198576927185
8120,,8.216899871826172,,
8139,,,-0.1364694982767105,
8140,1.994130761311765,8.01339340209961,,-1.2617442607879639
8159,,,0.2106897532939911,
8160,2.546955786049795,7.493851184844971,,-1.0749965906143188
8180,2.684795971014435,,0.33758243918418884,-1.048660397529602
8181,,7.3669586181640625,,
8199,,,0.2801215946674347,
8200,2.328201395099878,7.711723804473877,,-0.8188169598579407
8220,1.9947802258620764,8.221688270568848,0.3016694188117981,-0.31124621629714966
8240,2.3300656416655334,8.243236541748047,0.8523358106613159,-0.2753331959247589
8259,,,1.5155296325683594,
8260,2.7973758526101924,8.403648376464844,,0.016759412363171577
8280,2.9634628598283514,9.41639518737793,1.920149803161621,0.4596867263317108
8299,,,1.4963760375976562,
8300,2.9761366652210786,10.6709566116333,,0.9744400978088379
8319,,,1.3527239561080933,
8320,2.8563090913031517,11.106701850891113,,0.7852981686592102
8339,,,1.2018892765045166,
8340,2.485103572321934,10.733205795288086,,0.7805097699165344
8359,2.3434108234397466,,0.5291185975074768,
8360,,10.857705116271973,,1.1755530834197998
8380,2.871697228775151,11.200075149536133,0.026336219161748886,1.8602946996688843
8398,,,-0.5315127968788147,
8399,3.3154990097686436,10.60391902923584,,2.647987127304077
8419,2.836151367194057,10.108319282531738,-0.629675030708313,2.3247697353363037
8439,5.3986063819007235,,-0.629675030708313,
8440,,10.99656867980957,,-5.616796970367432
8458,,,1.2689268589019775,
8459,8.302578390016157,16.266206741333008,,-5.453991413116455
8479,,,3.294421434402466,
8480,6.49300771368107,,,
8481,,15.083470344543457,,-2.2242133617401123
8498,,,2.4636335372924805,
8499,4.9332100302949735,10.225635528564453,,-4.821922302246094
8518,,,0.6440402865409851,
8519,4.488725950622296,9.84495735168457,,-4.989516258239746
8538,,,-1.7932571172714233,
8539,3.004439248369578,,,
8540,,10.371682167053223,,-2.5330653190612793
8558,4.149635501159164,9.660603523254395,-3.7014358043670654,-0.8595184087753296
8578,4.6318393347750035,7.982268333435059,-3.7469255924224854,0.5410895943641663
8598,,,-1.50355863571167,
8599,2.587751967836136,7.936778545379639,,-0.4908113479614258
8618,1.9587489830068006,8.070854187011719,0.8307880163192749,-1.1085153818130493
8638,2.882965828144267,8.068459510803223,2.099714994430542,-1.6041151285171509
8657,,,1.5969325304031372,
8658,2.7543730211694446,7.740454196929932,,-1.4748282432556152
8678,2.1060656548941226,7.73087739944458,-0.0454898327589035,-1.070208191871643
8697,,,-1.3742717504501343,
8698,2.549729041121034,7.558494567871094,,-0.8930372595787048
8718,2.782566658996955,7.441178798675537,-1.742978811264038,-0.8259995579719543
8737,1.9044146848574328,8.142680168151855,-1.213860273361206,-0.3256114423274994
8757,,,-0.8595184087753296,
8758,1.6043695181205726,8.434772491455078,,-0.026336219161748886
8777,2.062186130570051,8.334216117858887,-1.292868971824646,0.3758896589279175
8797,2.7896845788984197,7.989450931549072,-1.723825216293335,0.8954314589500427
8817,,,-1.4077905416488647,
8818,2.9294007021079826,8.394071578979492,,1.6184803247451782
8838,2.2787527760432793,9.550470352172852,-0.8140285611152649,1.4844050407409668
8856,,,-0.8595184087753296,
8857,2.1823096688073553,10.709263801574707,,1.1851298809051514
8876,,,-1.2856862545013428,
8877,2.313145212426836,10.972626686096191,,1.0582371950149536
8896,,,-0.9097966551780701,
8897,2.4540231603386045,11.63103199005127,,0.8571242094039917
8917,3.519776601421399,11.848904609680176,-0.5578489899635315,2.207453966140747
8936,3.951904108343593,,-0.49320554733276367,2.7964274883270264
8937,,11.839327812194824,,
8956,3.871934724336334,11.611878395080566,-0.7924807667732239,2.9328970909118652
8976,,,-2.0015525817871094,
8977,2.69771603656961,,,
8978,,12.15296745300293,,-0.15083470940589905
8996,,,-5.5545477867126465,
8997,8.424758898627307,14.623784065246582,,-5.384559631347656
9015,,,-2.3271639347076416,
9016,6.4322636612708495,13.479355812072754,,-5.439626216888428
9036,1.3721801279452461,9.394847869873047,-0.3423708379268646,-1.4844050407409668
9056,3.328213112967616,9.083600997924805,0.22505496442317963,-3.287238836288452
9076,4.462442494938157,9.907206535339355,-0.31124621629714966,-4.637568473815918
9096,3.1008727414105293,10.113107681274414,-0.27054479718208313,-3.19865345954895
9116,0.6607982966870992,9.816226959228516,-0.6919242739677429,-0.608127236366272
9135,0.7329156050711427,,-1.1468225717544556,
9136,,9.002198219299316,,-0.47644615173339844
9155,,,-1.599326729774475,
9156,1.039778498573413,8.80587387084961,,-0.6799532771110535
9175,1.1427964222053224,9.035717010498047,-1.9608511924743652,-0.33518823981285095
9195,,,-1.647210717201233,
9196,0.8987297577892983,9.165003776550293,,-0.4165911078453064
9215,,,-0.8236053586006165,
9217,1.4240135626789956,8.324639320373535,,-0.5650315880775452
9235,,,0.13407529890537262,
9236,2.562742361377187,7.364564418792725,,-0.7230489253997803
9255,,,0.44532153010368347,
9256,3.383534554822693,,,-0.6703764796257019
9257,,6.576871871948242,,
9274,3.4426263211745263,,0.42856210470199585,-0.3256114423274994
9275,,6.507440090179443,,
9294,,,0.19632454216480255,
9296,2.8315449474713943,7.161057472229004,,0.090979665517807
9314,2.2533925229637264,,0.12449848651885986,0.38307225704193115
9315,,7.927201747894287,,
9335,2.3460108724278763,8.33182144165039,0.4381389021873474,0.8427590131759644
9354,,,0.8834604024887085,
9355,2.2929097936482066,,,
9356,,9.155426979064941,,1.0079588890075684
9374,2.298951955099956,,0.8954314589500427,1.139639973640442
9375,,10.187328338623047,,
9395,2.841719185203082,11.288661003112793,1.094150185585022,1.2545616626739502
9414,,,0.9864110946655273,
9415,2.290939863144157,10.951078414916992,,0.8930372595787048
9434,2.5360904142164986,10.828974723815918,0.7230489253997803,1.6496049165725708
9454,,,0.5219359993934631,
9455,3.6112420343645923,11.499350547790527,,2.7676970958709717
9474,,,0.040701430290937424,
9475,2.3506249875041023,11.310209274291992,,1.525106430053711
9493,3.4563812506865697,,-0.0694318488240242,
9494,,11.939884185791016,,-2.999934673309326
9513,5.7236543898085435,15.234305381774902,-0.9026140570640564,-1.8842366933822632
9533,7.760015353551403,,0.5386953949928284,-1.764526605606079
9534,,17.424999237060547,,
9553,,,1.3431471586227417,
9554,5.088251434243502,12.878411293029785,,-4.273650169372559
9573,,,0.9313444495201111,
9574,4.532682416036177,10.11550235748291,,-4.833893299102783
9593,2.2673079981156268,9.502586364746094,-0.363918662071228,-2.3343467712402344
9612,,,-2.0183119773864746,
9613,2.870236306381022,8.834604263305664,,-0.7541735172271729
9632,,,-2.8658595085144043,
9635,3.908225574648166,7.970297336578369,,-0.22505496442317963
9652,,,-1.479616641998291,
9653,2.9990668434969394,7.69735860824585,,-1.1013327836990356
9673,2.577772359138947,7.352593421936035,0.4692635238170624,-1.1252747774124146
9693,2.6081721108754943,7.3454108238220215,1.0007762908935547,-0.9097966551780701
9712,2.6115528087064126,,-0.035913024097681046,-0.7948749661445618
9713,,7.201758861541748,,
9732,,,-1.3646949529647827,
9733,2.8645306576596234,7.338228225708008,,-1.192312479019165
9753,2.9866868895742957,7.553706169128418,-2.0590133666992188,-1.290474772453308
9772,2.031730477653393,8.003816604614258,-1.1109095811843872,-1.2952631711959839
9792,1.0903423085050798,8.815450668334961,0.11013327538967133,-0.6967126727104187
9812,1.1648817315871642,,0.6009446382522583,
9813,,9.411606788635254,,-0.38067805767059326
9831,,,-0.23702596127986908,
9832,1.1209765117100372,9.006986618041992,,0.035913024097681046
9852,2.3812173475695086,8.944737434387207,-1.2761094570159912,1.3024457693099976
9871,,,-1.525106430053711,
9872,2.958018613022953,9.516951560974121,,2.0039467811584473
9892,2.7420083881363952,,-1.50355863571167,
9893,,10.247182846069336,,1.7836803197860718
9911,,,-1.5179238319396973,
9912,2.230249611266023,9.967061996459961,,1.2856862545013428
9931,,,-1.1683704853057861,
9932,1.755145682132692,10.575188636779785,,0.8068459630012512
9952,3.7376020844976283,,-0.8882488012313843,
9953,,12.126631736755371,,2.3582887649536133
9971,4.647701326947733,,-0.9576807022094727,3.2848446369171143
9972,,12.492944717407227,,
9991,4.807366345432728,,-1.4484920501708984,4.010287761688232
9992,,11.626243591308594,,
10010,,,-1.0558429956436157,
10012,4.371108149691429,,,4.1611223220825195
10013,,10.287884712219238,,
10031,2.7142490531481944,,-3.406949043273926,
10032,,8.956708908081055,,-0.40222588181495667
10050,,,-8.233659744262695,
10051,19.889880865400972,11.530475616455078,,-18.454505920410156
10070,2.431009895608989,,-0.3016694188117981,
10071,,11.939884185791016,,-0.9265560507774353
10090,2.2238146506952807,,0.6703764796257019,-1.6687586307525635
10091,,9.550470352172852,,
10110,6.2827717470233875,13.232752799987793,-2.736572504043579,-5.408501625061035
10130,,,-2.853888511657715,
10132,6.7672012994837365,,,
10133,,15.052346229553223,,-4.311957359313965
10150,2.3342139989032242,11.882423400878906,-1.137245774269104,-0.8188169598579407
10170,,,0.4644751250743866,
10171,2.1556453133386637,9.552865028381348,,-0.7493851184844971
10190,,,1.1635819673538208,
10192,3.626336739155915,7.479485988616943,,-1.4484920501708984
10210,4.495448035463293,5.671864032745361,0.4189853072166443,-1.4221558570861816
10231,,,-0.5003881454467773,
10232,3.716442385921452,6.078877925872803,,-0.8786720037460327
10249,3.0956144013311016,6.739677906036377,-1.7070658206939697,-1.0247182846069336
10269,,,-1.1755530834197998,
10270,2.2289416000499216,7.55131196975708,,-1.2713210582733154
10289,,,-0.6943184733390808,
10290,2.055565128075016,7.687781810760498,,-0.7158663272857666
10309,,,-0.009576806798577309,
10311,2.1771114536154603,7.785943984985352,,-0.5722141861915588
10329,,,0.5841852426528931,
10330,2.305895679413615,,,
10331,,,,-0.16519992053508759
10332,,8.195352554321289,,
10349,1.87899621442786,9.208099365234375,0.7709329724311829,-0.33758243918418884
10369,1.9488399649769055,,1.039083480834961,
10370,,10.292673110961914,,-0.8236053586006165
10389,1.9720931958660453,10.72841739654541,0.8355764150619507,-0.5626373887062073
10410,2.036689751656038,10.931924819946289,-0.15562310814857483,0.28969839215278625
10430,3.301843596378958,11.389217376708984,-1.2449848651885986,1.534683346748352
10449,3.7134896908297628,,-1.2401964664459229,
10450,,11.44907283782959,,2.070984363555908
10468,,,-0.06703764945268631,
10469,3.4487479937368866,10.831368446350098,,2.2385785579681396
10488,,,-0.13168109953403473,
10489,4.1832025596168725,10.273519515991211,,3.2800562381744385
10508,,,-0.9026140570640564,
10510,4.596464432068256,9.840168952941895,,3.8091750144958496
10528,2.6487688515583225,10.647014617919922,0.2753331959247589,-3.162740468978882
10548,11.436764219203964,14.468160629272461,2.8634653091430664,-10.733205795288086
10568,,,3.224989652633667,
10569,8.188728065700092,17.13290786743164,,0.31364041566848755
10607,,,1.115697979927063,
10611,6.089839678378209,10.204087257385254,,-6.931213855743408
10646,1.2987300520274587,9.17697525024414,-0.9696516990661621,-0.7374141216278076
10686,1.5802219169835872,,-1.0893617868423462,
10687,,8.810662269592285,,-1.1180921792984009
10725,,,1.1109095811843872,
10726,1.8607830198085593,9.3828763961792,,-2.231395959854126
66259,2.0810874531823425,10.47702693939209,-0.9576807022094727,0.9097966551780701
66298,2.9037750534704347,,-2.2625205516815186,-0.8690952062606812
66299,,7.90086555480957,,
66338,2.2363002991923344,8.707711219787598,-1.5969325304031372,-0.22026655077934265
66357,,,0.11252748221158981,
66358,1.484650034270172,8.259995460510254,,-1.01753568649292
66377,,,0.5674257874488831,
66378,2.919171883196085,6.825869083404541,,-1.113303780555725
66397,,,0.7350199222564697,
66398,3.580469154858967,6.189011573791504,,-0.9217676520347595
66417,,,0.6919242739677429,
66418,3.6150423284350284,6.172252178192139,,-0.7565677165985107
66437,,,0.3280056416988373,
66438,3.144312728965842,6.777985095977783,,-0.30885201692581177
66457,2.5229217663647,7.644686222076416,0.6368576288223267,-0.1173158809542656
66477,2.6844459746351506,8.133103370666504,1.41257905960083,0.29209262132644653
66497,2.70947780392093,9.418789863586426,2.1332337856292725,0.40222588181495667
66517,2.5505201781536058,10.66137981414795,2.2194249629974365,-0.14844051003456116
66536,,,2.094926595687866,
66537,2.7909202906434976,11.530475616455078,,-0.3471592366695404
66557,3.3775489506537872,11.975796699523926,1.5059528350830078,0.7541735172271729
66576,,,0.8092401623725891,
66577,4.549711096677725,12.806585311889648,,1.9345149993896484
66596,,,-0.3280056416988373,
66598,5.252186274575741,12.555193901062012,,3.1028854846954346
66616,4.067227005006471,11.463438034057617,-0.7972691655158997,2.363077163696289
66636,,,-0.17717093229293823,
66637,7.020032284219523,11.860875129699707,,-7.599195957183838
66656,7.265220712878304,,-0.5267243981361389,-3.1723172664642334
66657,,16.567874908447266,,
66677,5.977268072628209,15.641319274902344,0.5051765441894531,-0.014365210197865963
66697,4.512803407227613,10.515334129333496,0.811634361743927,-5.327098846435547
66717,,,-0.40462008118629456,
66718,3.686955815910541,9.418789863586426,,-4.288015365600586
66736,,,-1.680729627609253,
66737,2.7185834636325903,8.901641845703125,,-1.482010841369629
66756,3.8265321492821336,7.390900611877441,-2.0254945755004883,-1.6352397203445435
66775,,,-1.534683346748352,
66776,3.881741473889933,6.703764915466309,,-1.1635819673538208
66796,2.1782896967483927,7.687781810760498,0.043095629662275314,-0.7733271718025208
66816,0.8979240940845948,9.44752025604248,1.4844050407409668,-1.0079588890075684
66835,1.4534244844013395,,1.8986018896102905,
66836,,9.995792388916016,,-1.4389152526855469
66855,0.8856440009190095,9.311050415039062,1.115697979927063,-1.3934253454208374
66876,2.3017484901831797,,-0.706289529800415,-0.7565677165985107
66877,,7.740454196929932,,
66896,,,-1.7501614093780518,
66897,3.516124910203742,6.943184852600098,,-0.4213795065879822
66916,3.73959164986,,-1.8171991109848022,0.10534487664699554
66917,,6.763619899749756,,
66935,,,-1.4101848602294922,
66936,3.3329242614234804,7.206547260284424,,0.6751648783683777
66955,,,-1.194706678390503,
66956,2.7418256993727677,7.90086555480957,,0.7829039692878723
66975,,,-1.8124107122421265,
66976,2.850876649915718,8.59997272491455,,1.1037269830703735
66995,,,-2.1475989818573,
66996,3.1802051319681386,8.939949035644531,,1.5107412338256836
67015,,,-1.2737152576446533,
67016,2.621777327381202,9.485827445983887,,1.6041151285171509
67035,,,-0.3064578175544739,
67036,2.072516653548492,10.599130630493164,,1.1635819673538208
67055,2.458073187387972,,-0.4213795065879822,
67056,,11.24795913696289,,1.237802267074585
67075,,,-1.5179238319396973,
67076,2.4413067362531184,10.644620895385742,,1.1899182796478271
67095,2.7731868147048675,,-1.8626888990402222,1.1324573755264282
67096,,11.204863548278809,,
67115,,,-1.460463047027588,
67116,3.6690525326610897,11.33654499053955,,2.612074136734009
67135,3.8940888577331396,11.039664268493652,-0.9002198576927185,3.2585084438323975
67154,,,-0.6105214357376099,
67155,3.969753589045453,9.919178009033203,,3.7229835987091064
67174,,,-1.625662922859192,
67175,1.901841992390476,10.417171478271484,,1.2832920551300049
67194,,,-4.666299343109131,
67195,7.075511188708768,13.864822387695312,,-4.129997730255127
67214,,,-2.7246015071868896,
67215,7.888700888935255,13.230358123779297,,-6.916848659515381
67234,,,0.2825157940387726,
67235,2.830470171850923,9.478644371032715,,-2.7988216876983643
67254,3.603072968874036,,1.259350061416626,
67255,,7.876923561096191,,-2.389413356781006
67274,,,0.043095629662275314,
67275,3.6190950377424347,9.600749015808105,,-3.5936968326568604
67293,,,-0.8188169598579407,
67294,3.3438421218873953,11.753135681152344,,-2.80361008644104
67313,2.3610492349133803,,-1.5705963373184204,-0.090979665517807
67314,,12.06198787689209,,
67333,1.5363162562311694,10.491392135620117,-2.47560453414917,0.3758896589279175
67353,1.4924066192960703,9.342175483703613,-2.6384103298187256,-0.19153612852096558
67373,2.3017517012076807,8.190564155578613,-2.760514497756958,0.0071826050989329815
67392,,,-2.4660277366638184,
67393,2.0882182136380707,8.336610794067383,,0.05746084079146385
67412,,,-1.3048399686813354,
67413,1.6969035896154947,,,-0.47165772318840027
67414,,8.111555099487305,,
67432,2.3233958093716223,7.637503623962402,-0.023942016065120697,-0.933738648891449
67452,,,0.3734954595565796,
67453,3.042693256644238,6.959944248199463,,-0.7996633648872375
67473,3.1544401815356586,6.864176273345947,0.524330198764801,-0.5554547905921936
67492,2.7290621341944012,7.398083209991455,0.6799532771110535,-0.507570743560791
67512,2.066425402720196,8.453926086425781,0.7589619159698486,0.11013327538967133
67532,2.1785978923146203,9.244012832641602,1.3239935636520386,0.1364694982767105
67551,,,1.9560627937316895,
67552,2.9226469764266634,8.860940933227539,,0.4596867263317108
67571,,,2.056619167327881,
67572,3.1184113282304713,8.62630844116211,,0.6847416758537292
67591,,,1.4915876388549805,
67592,2.322774999657876,8.851364135742188,,0.26096799969673157
67611,1.5573574890038955,,0.8140285611152649,
67612,,9.5408935546875,,0.3519476354122162
67631,,,0.2513911724090576,
67632,1.336365480634022,10.290278434753418,,0.5027823448181152
67651,1.7230571531180783,10.560823440551758,-0.06224924325942993,0.993593692779541
67671,2.822245181316527,11.05642318725586,-0.18914192914962769,2.0685901641845703
67691,3.0183267300591643,10.613495826721191,0.12689268589019775,2.5234885215759277
67711,2.5859908821611977,9.75637149810791,0.26575639843940735,2.3104045391082764
67730,,,0.26336219906806946,
67731,4.638590254216123,11.456254959106445,,-4.484339714050293
67750,,,-0.15801730751991272,
67751,11.19269019412841,18.83279037475586,,-6.845022678375244
67771,8.494289948604123,18.16002082824707,-0.011971008032560349,1.139639973640442
67791,4.82035938901678,10.96544361114502,0.1867477297782898,-4.967968463897705
67810,3.5831857399522384,9.694122314453125,-0.8882488012313843,-3.6367924213409424
67830,4.033770815450123,8.841787338256836,-3.5410242080688477,0.22505496442317963
67850,5.169777067236725,8.700529098510742,-4.683058738708496,-0.395043283700943
67870,4.212480421615065,8.743624687194824,-3.8331170082092285,-0.08379705995321274
67890,1.5990534784130739,9.248801231384277,-1.436521053314209,-0.3256114423274994
67910,1.3036232450903023,8.89445972442627,0.5147533416748047,-0.933738648891449
67930,2.5026652434190386,8.224082946777344,1.5179238319396973,-1.0534487962722778
67950,2.694275852928498,,0.9911994934082031,
67951,,7.580042362213135,,-1.0031704902648926
67970,2.2653867398964858,7.529764175415039,-0.47884035110473633,-0.31603461503982544
67990,,,-0.9265560507774353,
67991,2.6978676004747086,7.139509677886963,,-0.5291185975074768
68010,3.2766840092254053,,-1.0989385843276978,
68011,,6.560112476348877,,-0.28969839215278625
68030,,,-1.4269442558288574,
68031,2.93281603789078,7.0988078117370605,,0.42616790533065796
68050,,,-1.9488801956176758,
68051,2.297584891094801,8.508993148803711,,0.8978256583213806
68070,2.882379101271598,,-2.7533318996429443,1.41257905960083
68071,,9.368511199951172,,
68090,,,-2.983175277709961,
68091,3.284492126176664,9.215282440185547,,1.7836803197860718
68110,3.0120230396093746,8.932766914367676,-2.2888567447662354,1.98958158493042
68129,,,-1.4748282432556152,
68130,2.083175030098088,9.272743225097656,,1.501164436340332
68149,,,-1.0342950820922852,
68150,1.1968333224617205,9.986215591430664,,0.8044517636299133
68169,,,-0.6512228846549988,
68170,1.2854897666354688,10.589553833007812,,0.6584054827690125
68189,,,-0.05506663769483566,
68190,1.856491417390077,11.159374237060547,,0.6799532771110535
68209,3.0685651237908105,,-0.2968810200691223,
68210,,12.114660263061523,,1.6160861253738403
68229,3.7531616869808055,11.942277908325195,-1.941697597503662,2.5522189140319824
68249,4.319523937697284,,-3.2585084438323975,2.911349296569824
68250,,11.48259162902832,,
68269,,,-4.505887508392334,
68270,4.686009284446203,12.753912925720215,,-0.19393034279346466
68288,,,-4.331110954284668,
68289,6.1275364820311795,14.420276641845703,,-2.3367409706115723
68308,,,-1.414973258972168,
68309,3.1695873109797477,12.648567199707031,,-1.4293384552001953
68328,,,-1.0989385843276978,
68329,1.3195238636051776,9.006986618041992,,-1.2282254695892334
68348,,,-1.6879122257232666,
68349,4.5949093140794695,8.53532886505127,,-4.517858505249023
68368,,,-1.4437036514282227,
68369,4.298514868186626,8.786720275878906,,-4.264073371887207
68388,,,-0.038307227194309235,
68389,3.025426402659254,10.395624160766602,,-2.4612393379211426
68408,3.3616345280888957,,1.1779472827911377,
68409,,11.197681427001953,,-0.8834604024887085
68428,2.279496969479979,,0.5267243981361389,
68429,,10.457873344421387,,-0.2106897532939911
68448,,,-1.4724340438842773,
68449,0.4973528645381656,9.21288776397705,,-0.4141969084739685
68467,,,-2.5450363159179688,
68468,1.2529130846857632,9.26795482635498,,-0.6943184733390808
68487,,,-2.655169725418091,
68488,1.7413809239226028,8.573636054992676,,-0.5793967843055725
68507,,,-1.721431016921997,
68508,1.880314352862913,,,
68509,,7.910442352294922,,-0.6967126727104187
68528,2.3182474830833453,7.642292022705078,-0.31124621629714966,-1.091755986213684
68548,,,0.2801215946674347,
68549,2.72859924668859,7.362170219421387,,-0.7996633648872375
68567,,,0.4357447028160095,
68568,2.7958499159418273,7.328651428222656,,-0.8164227604866028
68587,,,0.5626373887062073,
68588,2.2816297659201656,,,
68589,,7.999027729034424,,-0.6392518281936646
68607,,,0.8643068075180054,
68608,1.9866125152662202,8.911218643188477,,-0.22026655077934265
68627,2.0169347012209538,,1.0773907899856567,-0.23702596127986908
68628,,9.29189682006836,,
68647,,,1.2258312702178955,
68648,2.1389308267530582,9.114726066589355,,-0.2753331959247589
68667,,,1.4484920501708984,
68668,2.447465722503502,9.0859956741333,,0.21308395266532898
68686,2.6830684586420386,9.682151794433594,1.6950948238372803,0.608127236366272
68706,2.385085025927189,10.309432983398438,1.3527239561080933,0.6105214357376099
68726,2.1245713643122617,10.735600471496582,0.7422025203704834,0.7398083209991455
68745,2.143478830164023,,0.8667010068893433,
68746,,10.951078414916992,,0.6177040338516235
68766,,,1.072602391242981,
68767,2.752379861508686,11.281478881835938,,1.259350061416626
68786,3.2515665826950584,11.374852180480957,0.9911994934082031,2.0398597717285156
68806,,,0.14604631066322327,
68807,3.9628956786716176,10.512939453125,,3.445256233215332
68826,1.641074927261207,,-0.9433154463768005,0.9816226959228516
68827,,10.235212326049805,,
68845,,,-0.5889736413955688,
68846,7.439475686661772,11.848904609680176,,-7.422025203704834
68866,8.909609512352247,,2.5019407272338867,-4.81473970413208
68867,,17.12572479248047,,
68885,,,2.849100112915039,
68886,5.102367016387774,13.831303596496582,,-1.8124107122421265
68905,,,0.9744400978088379,
68906,4.010873321031628,9.761159896850586,,-4.381389141082764
68926,,,-1.5394717454910278,
68927,3.37314385129486,9.694122314453125,,-3.227383852005005
68945,,,-4.086902141571045,
68946,4.5293621471417955,9.191340446472168,,-0.849941611289978
68965,,,-4.467580318450928,
68966,4.959659537966688,8.734047889709473,,0.3926490843296051
68986,3.448210105433452,,-2.8155810832977295,
68987,,8.149862289428711,,0.0933738648891449
69005,,,-0.363918662071228,
69007,1.5692170530722351,8.53532886505127,,-1.0678139925003052
69025,2.5327050065628556,,1.4772224426269531,-1.9967641830444336
69026,,8.868123054504395,,
69045,2.928772969239282,,1.7381904125213623,
69046,,8.238448143005371,,-1.867477297782898
69065,,,0.5051765441894531,
69066,2.4847749592066464,7.671022415161133,,-1.4437036514282227
69085,2.5455911595047773,,-1.070208191871643,
69086,,7.364564418792725,,-0.768538773059845
69104,,,-1.7310078144073486,
69105,3.099697676652597,7.017405033111572,,-1.0678139925003052
69125,2.58576204102276,7.4100542068481445,-1.5658079385757446,-0.8164227604866028
69145,,,-1.2952631711959839,
69146,1.7137870574216725,8.233659744262695,,-0.19632454216480255
69164,,,-0.8786720037460327,
69165,1.1033975453625873,8.803479194641113,,-0.1388636976480484
69184,1.3763461026238144,,-1.403002142906189,
69185,,9.117119789123535,,0.31124621629714966
69204,2.047895104523388,,-1.7932571172714233,
69205,,9.193734169006348,,0.9385270476341248
69224,2.2413696498814444,,-1.192312479019165,
69225,,9.418789863586426,,1.4173674583435059
69244,,,-0.5267243981361389,
69245,2.153122112122746,10.280701637268066,,1.290474772453308
69263,,,-0.8164227604866028,
69264,2.082334685982491,10.72602367401123,,1.0678139925003052
69284,1.8711508979113674,10.553641319274902,-1.4939818382263184,0.7972691655158997
69303,,,-1.53707754611969,
69304,2.533717706866892,11.240777015686035,,1.2282254695892334
69323,,,-1.1204863786697388,
69324,3.7878914508029933,11.554417610168457,,2.6862943172454834
69344,4.312331265451805,11.331756591796875,-0.4596867263317108,3.442862033843994
69363,3.1127359446369933,,-1.0007762908935547,
69364,,11.231200218200684,,2.33913516998291
69383,,,-3.203441858291626,
69385,5.245256188084401,13.251906394958496,,-3.6080620288848877
69403,,,-4.6255974769592285,
69405,8.46149474446134,14.429853439331055,,-6.452373504638672
69423,3.07291680459922,11.044452667236328,-0.8930372595787048,-3.0789434909820557
69442,,,0.17717093229293823,
69443,2.610327815080906,9.129091262817383,,-2.3582887649536133
69466,4.166268113466311,9.775525093078613,-0.3974374830722809,-4.278438568115234
69481,,,0.31124621629714966,
69482,4.871035014932578,11.523292541503906,,-4.323928356170654
69501,,,1.036689281463623,
69502,3.1397930200962945,10.876858711242676,,-1.5155296325683594
69521,,,0.48602294921875,
69522,2.1047227206607237,9.21288776397705,,-0.7613561153411865
69541,2.1348371013880403,,-0.6560112833976746,
69542,,8.078036308288574,,-1.4844050407409668
69561,2.066919850663635,7.872135162353516,-1.6304513216018677,-1.2880805730819702
69581,1.799353706045715,8.109161376953125,-1.920149803161621,-0.507570743560791
69601,1.2830228867663696,8.461109161376953,-1.2210428714752197,-0.586579442024231
69621,1.6048685330176624,8.243236541748047,-0.45250412821769714,-0.42616790533065796
69641,2.0502900034771065,7.8960771560668945,-0.1843535304069519,-0.21547815203666687
69660,,,-0.11252748221158981,
69661,2.511316626174289,7.395689010620117,,-0.26336219906806946
69680,,,-0.07182604819536209,
69681,2.702948327437489,7.208941459655762,,-0.19871874153614044
69700,,,-0.11252748221158981,
69701,2.4170417056164863,7.630321025848389,,0.17717093229293823
69720,,,0.272938996553421,
69721,2.175276363836035,8.279149055480957,,0.4644751250743866
69740,2.402159744286952,,1.1540051698684692,0.7374141216278076
69741,,9.265560150146484,,
69760,3.333104666178103,,1.9057846069335938,1.4484920501708984
69761,,10.26394271850586,,
69800,2.9914691750061886,10.769119262695312,1.9105730056762695,0.8547300100326538
69840,2.3924738896299442,11.12106704711914,0.45250412821769714,1.2880805730819702
69880,3.679330342771662,,0.3280056416988373,2.846705913543701
69881,,11.30302619934082,,
69920,3.4911172408755586,,0.14604631066322327,
69921,,10.548852920532227,,-3.7660791873931885
69959,,,2.7964274883270264,
69960,6.795186010513654,14.669273376464844,,-4.180276393890381
69999,,,-0.22744916379451752,
70000,3.811219672673248,9.41400146484375,,-4.10366153717041
70039,,,-3.1699230670928955,
70040,3.64431340097003,9.418789863586426,,-0.8595184087753296
70079,,,-0.8068459630012512,
70080,1.6446646230803743,8.616731643676758,,-0.33758243918418884
70119,,,1.9488801956176758,
70120,3.05626978955561,8.027758598327637,,-1.920149803161621
70159,,,-0.4429273009300232,
70160,2.3896184061187618,7.534552574157715,,-0.9720458984375
70238,1.6481464002403932,9.071630477905273,-1.2689268589019775,0.6248866319656372
70278,2.8188283296177277,8.073247909545898,-1.4197616577148438,1.4700398445129395
70317,1.7462567758940715,,-0.5410895943641663,
70318,,9.442731857299805,,1.3192051649093628
70357,2.3467619806497724,10.903194427490234,-2.027888774871826,0.6200982332229614
70397,,,-0.3878606855869293,
70398,3.393212803147101,11.939884185791016,,2.3558945655822754
70437,4.069535955644956,,-0.9409212470054626,
70438,,11.039664268493652,,3.756502389907837
70477,5.413129013195693,,-2.832340717315674,
70478,,14.34366226196289,,-1.9345149993896484
70517,,,-1.6687586307525635,
70518,2.803065689122865,10.002974510192871,,-2.7054479122161865
70557,3.6617451641805854,10.036493301391602,-0.1173158809542656,-3.6104562282562256
70596,,,-0.033518824726343155,
70597,1.7340165876235338,9.47146224975586,,-1.3646949529647827
70637,0.8649510593571221,9.040505409240723,-1.4652514457702637,-0.19632454216480255
70676,,,-2.2697031497955322,
70677,1.5409762494721904,9.188945770263672,,-0.11013327538967133
70716,,,0.19393034279346466,
70717,2.0675173910717253,7.953537940979004,,-0.7948749661445618
70874,,,1.1803414821624756,
70875,1.9180694367187823,9.351752281188965,,0.6009446382522583
70898,1.951890967575853,10.539276123046875,1.2832920551300049,0.44771572947502136
70914,,,1.2018892765045166,
70915,2.0160140024410373,11.046846389770508,,0.3471592366695404
70934,2.985765223221793,,1.158793568611145,
70935,,11.985373497009277,,1.359906554222107
70954,3.7496225802911027,12.078747749328613,0.5722141861915588,2.829946517944336
70974,3.5622522368356133,11.137825965881348,-0.1867477297782898,3.3734302520751953
70994,2.6144489593221896,,-0.7493851184844971,
70995,,10.47942066192627,,2.647987127304077
71013,,,-0.5267243981361389,
71014,5.250743086769418,12.179304122924805,,-4.326322555541992
71034,9.141112016272581,17.19276237487793,1.9632453918457031,-4.903325080871582
71054,5.755091859033025,14.118607521057129,3.220201253890991,-2.255337953567505
71074,3.858432299427468,9.368511199951172,2.252943754196167,-3.332728862762451
71093,,,0.2298433631658554,
71094,3.611572125342748,8.863334655761719,,-3.529053211212158
71114,3.404548149881038,,-2.190694570541382,-1.9297266006469727
71115,,9.294290542602539,,
71134,5.048632053131834,9.260771751403809,-4.4292731285095215,0.10534487664699554
71154,4.931446468950368,8.061277389526367,-4.20421838760376,0.45489832758903503
71174,2.0795808439469794,8.755595207214355,-1.5945383310317993,-0.7158663272857666
71194,1.4739416366368343,,1.113303780555725,-1.036689281463623
71195,,9.418789863586426,,
71213,,,2.492363929748535,
71214,3.0825894119895625,,,-1.455674648284912
71215,,8.71728801727295,,
71234,3.3010311596407185,7.287950038909912,1.7262194156646729,-1.335964560508728
71254,,,-0.2537853717803955,
71255,2.961450698382912,6.847416877746582,,-0.6560112833976746
71274,3.402328193357446,6.739677906036377,-1.8387469053268433,-0.4141969084739685
71293,,,-1.9321208000183105,
71294,2.7041664542818697,7.570465564727783,,0.009576806798577309
71313,1.8709915547345968,,-1.4484920501708984,0.38546648621559143
71314,,8.389283180236816,,
71333,1.361284208752381,8.954314231872559,-0.9888052940368652,0.5003881454467773
71353,,,-1.2976573705673218,
71354,1.9230656850926617,8.951920509338379,,1.0630255937576294
71373,2.700045380387586,8.56645393371582,-1.3934253454208374,1.7764976024627686
71393,2.4820732153976115,8.935160636901855,-0.4812345504760742,1.86508309841156
71413,1.646412477925897,,-0.1843535304069519,
71414,,9.99339771270752,,1.1492167711257935
71433,1.6989032320886739,10.618284225463867,-0.8259995579719543,1.0654197931289673
71452,,,-1.1324573755264282,
71453,1.5656605607979603,10.599130630493164,,0.8643068075180054
71471,,,-0.7876923680305481,
71472,2.728680943564575,11.082759857177734,,2.0805611610412598
71491,3.4735022631058925,11.298237800598145,-0.7541735172271729,2.8610711097717285
71511,,,-0.9289502501487732,
71512,4.004555254184099,11.386823654174805,,3.4835634231567383
71531,3.484337776566867,11.678915977478027,-1.6663644313812256,2.7222073078155518
71551,4.936376129880532,14.231135368347168,-2.6384103298187256,-1.2665326595306396
71571,8.04666641113146,14.068328857421875,-5.463568210601807,-5.2265424728393555
71591,4.8370322619882975,11.109095573425293,-1.8602946996688843,-4.637568473815918
71611,2.479261594178429,9.378087997436523,-0.3519476354122162,-2.3271639347076416
71631,3.8386788759937303,,-0.31842881441116333,
71632,,10.51054573059082,,-3.643975019454956
71651,4.411506277256935,11.920730590820312,-0.5746083855628967,-3.7181951999664307
71671,2.6258565322721217,11.140220642089844,-0.24420857429504395,-1.7573440074920654
71691,1.1326107503198584,9.68933391571045,-0.4429273009300232,-0.24660277366638184
71711,1.5349551158891226,,-1.01753568649292,-0.6392518281936646
71712,,8.365341186523438,,
71731,,,-1.7166426181793213,
71732,2.0336670799678043,7.783549785614014,,-0.6224924325942993
71751,1.7961047304538755,8.130708694458008,-2.0446481704711914,0.026336219161748886
71771,,,-1.5107412338256836,
71772,1.6055765603058043,8.185775756835938,,-0.45489832758903503
71790,,,-0.23702596127986908,
71791,2.0411550957879303,7.927201747894287,,-0.751779317855835
71811,2.8503356802831856,7.383718013763428,0.5506663918495178,-0.8475474119186401
71831,2.8621252622563014,,0.6607996821403503,-0.6991068720817566
71832,,7.354987621307373,,
71851,2.331341154141935,7.927201747894287,0.6368576288223267,-0.35673606395721436
71870,,,0.38307225704193115,
71871,1.7784566559913655,8.62391471862793,,0.23702596127986908
71890,,,0.3734954595565796,
71891,1.9244748030747707,9.181763648986816,,0.9265560507774353
71910,,,0.849941611289978,
71911,2.4385694456303906,8.942343711853027,,1.2018892765045166
71930,,,0.9720458984375,
71931,2.7170420576483143,8.425195693969727,,1.2976573705673218
71950,2.006161021698635,,0.524330198764801,
71951,,8.860940933227539,,1.0295066833496094
71970,1.6743283676027245,9.816226959228516,0.363918662071228,1.0869675874710083
71990,2.100988259974002,,0.24899697303771973,
71991,,10.596736907958984,,1.5107412338256836
72010,2.0717063961787088,,0.26336219906806946,
72011,,11.216835021972656,,1.113303780555725
72030,3.4369793584324198,,0.8188169598579407,2.118868589401245
72031,,12.066776275634766,,
72050,3.8260420134132507,11.674127578735352,1.0342950820922852,2.935291290283203
72069,,,0.49559974670410156,
72070,3.76765583407094,,,
72071,,10.247182846069336,,3.6296098232269287
72089,1.2424211102468732,,-0.19393034279346466,1.1348515748977661
72090,,10.400412559509277,,
72109,,,0.2825157940387726,
72110,6.342091009886688,13.275848388671875,,-5.2049946784973145
72129,8.661836549748026,16.63730812072754,2.7916390895843506,-4.54419469833374
72148,,,3.646369218826294,
72149,6.054651587595108,,,-4.177882194519043
72150,,12.425907135009766,,
72169,4.237797666464227,,1.8818424940109253,-3.955221176147461
72170,,9.5624418258667,,
72189,3.256507081410519,9.911994934082031,-0.2106897532939911,-3.248931646347046
72208,,,-3.2345664501190186,
72210,4.014777305574307,10.144232749938965,,-1.1994950771331787
72228,,,-4.786009311676025,
72229,5.4782400568506855,,,
72230,,9.229647636413574,,0.6344634294509888
72248,4.183088569522375,,-3.1914708614349365,
72249,,7.876923561096191,,0.17956513166427612
72268,,,-0.6703764796257019,
72269,1.903815544137255,8.346187591552734,,-0.751779317855835
72288,2.031846296376975,,1.656787633895874,
72289,,8.846575736999512,,-1.139639973640442
72308,3.2462501901326144,8.087613105773926,2.5067291259765625,-1.4724340438842773
72328,,,1.3024457693099976,
72329,3.0223217859728817,7.266402244567871,,-1.2330138683319092
72349,2.7461175388483303,7.139509677886963,-0.7182605266571045,-0.38307225704193115
72367,,,-1.6974890232086182,
72368,2.8555567528226975,7.398083209991455,,-0.3471592366695404
72387,,,-1.6160861253738403,
72388,2.281069186635142,8.078036308288574,,0.24181437492370605
72407,,,-1.256955862045288,
72408,1.6236590941885662,8.791508674621582,,0.4429273009300232
72427,,,-1.3407529592514038,
72428,1.8140966026130088,8.786720275878906,,0.6847416758537292
72447,,,-1.9800047874450684,
72448,2.6106359667247436,8.549694061279297,,1.1755530834197998
72467,,,-1.8986018896102905,
72468,3.0453631440399924,8.439560890197754,,1.845929503440857
72487,,,-0.9409212470054626,
72488,2.401240894274547,9.205705642700195,,1.8698714971542358
72507,1.8428605083844618,,-0.727837324142456,1.3718775510787964
72508,,10.27591323852539,,
72528,1.875574659659028,10.6709566116333,-0.9576807022094727,1.2066776752471924
72548,1.5231697825413764,10.802638053894043,-1.1755530834197998,0.5291185975074768
72566,,,-1.091755986213684,
72567,2.8520906978165645,,,1.944091796875
72568,,11.453861236572266,,
72586,,,-1.3072341680526733,
72587,3.844943473807185,11.489773750305176,,3.1028854846954346
72607,4.421295667244758,,-1.4891934394836426,3.861847400665283
72608,,11.317391395568848,,
72626,,,-1.9632453918457031,
72627,2.9918878868435907,12.066776275634766,,1.3503297567367554
72647,4.549432723345631,,-1.6927006244659424,-1.0989385843276978
72648,,14.12818431854248,,
72666,,,-4.728548526763916,
72667,6.606004653748857,13.163320541381836,,-4.393360137939453
72687,4.669592258207365,11.556811332702637,-3.205836057662964,-3.912125587463379
72706,,,-1.7046716213226318,
72707,2.1703222199037655,9.289502143859863,,-2.2649147510528564
72726,3.717274349011037,,-0.3687070608139038,-3.7852327823638916
72727,,9.66299819946289,,
72746,4.569349190679914,,0.7637503147125244,
72747,,10.848128318786621,,-4.003105163574219
72767,4.251188224292048,10.390835762023926,1.6950948238372803,-2.9065608978271484
72786,2.9396550815692972,,1.0821791887283325,
72787,,8.75080680847168,,-1.3886369466781616
72805,2.1916278584263167,,-0.3878606855869293,
72806,,7.817068576812744,,-0.8068459630012512
72825,,,-1.8411411046981812,
72827,1.8317002768147554,8.027758598327637,,-0.6775590777397156
72845,,,-2.47560453414917,
72846,1.7606010867097173,8.561665534973145,,-0.5363011956214905
72865,,,-2.2577321529388428,
72866,1.557564914507862,8.702922821044922,,-0.5722141861915588
72885,0.8146077107703079,,-0.7182605266571045,
72886,,8.975862503051758,,-0.6344634294509888
72905,1.7419507331932664,,0.3208230137825012,
72906,,8.516175270080566,,-0.629675030708313
72925,1.9818191288507536,8.336610794067383,0.5674257874488831,-0.811634361743927
72945,1.9208694556667565,,0.49320554733276367,
72946,,8.29590892791748,,-0.5219359993934631
72965,1.9268770330853273,8.365341186523438,0.304063618183136,0.15801730751991272
72984,,,0.29209262132644653,
72985,2.246686721150046,8.192957878112793,,0.5817909836769104
73004,,,0.5770025849342346,
73005,2.589462873665227,8.08282470703125,,0.8762778043746948
73024,,,0.9050082564353943,
73025,2.857823685863497,8.216899871826172,,1.2473790645599365
73044,,,0.6751648783683777,
73045,2.5301129648372713,8.904036521911621,,1.4437036514282227
73064,2.0510883791595953,,0.7613561153411865,0.9768342971801758
73065,,10.295066833496094,,
73084,2.4112797472568896,,1.3527239561080933,
73085,,11.022904396057129,,0.5123591423034668
73104,2.5961231267910287,11.441889762878418,1.580173134803772,-0.004788403399288654
73124,3.27969119874583,12.12902545928955,1.4460978507995605,1.1061211824417114
73143,,,0.8762778043746948,
73144,3.9769561512778857,12.018892288208008,,2.7533318996429443
73164,3.938063323883952,10.378864288330078,-0.22505496442317963,3.6152446269989014
73184,1.308261020549104,,-1.1755530834197998,0.035913024097681046
73185,,10.201693534851074,,
73203,,,-0.4596867263317108,
73204,6.701558105581154,14.075511932373047,,-5.202600479125977
73223,,,2.779668092727661,
73224,8.318382533646442,16.673221588134766,,-3.995922565460205
73243,5.475068023119721,11.623848915100098,3.912125587463379,-3.737348794937134
73263,4.630677939230916,9.133879661560059,1.9847931861877441,-4.41969633102417
73283,3.3097044466492656,9.823410034179688,-0.40940847992897034,-3.3016040325164795
73303,4.408685538651055,9.943120002746582,-3.579331636428833,-1.1348515748977661
73323,5.914221818156254,,-5.135562419891357,0.5674257874488831
73324,,9.220070838928223,,
73342,,,-3.5673606395721436,
73343,4.502481624008713,8.063671112060547,,0.12689268589019775
73362,,,-0.7565677165985107,
73363,1.9280312414882979,8.38449478149414,,-0.7709329724311829
73383,,,1.8770540952682495,
73384,2.3891707840524656,8.530540466308594,,-1.3934253454208374
73403,3.379969294030475,7.953537940979004,2.628833532333374,-1.6041151285171509
73423,,,1.4915876388549805,
73424,2.951449771826591,,,
73425,,7.398083209991455,,-1.259350061416626
73443,2.6725298876469483,7.187393665313721,-0.5817909836769104,-0.33758243918418884
73462,2.8855247247800344,,-1.6543933153152466,
73463,,7.354987621307373,,-0.40940847992897034
73483,2.2605846243014063,,-1.5394717454910278,
73484,,8.022970199584961,,0.033518824726343155
73502,1.948129536902169,8.461109161376953,-1.4101848602294922,0.3902548849582672
73522,2.104044869803862,,-1.6160861253738403,0.608127236366272
73523,,8.559270858764648,,
73542,2.6405031074515755,8.51138687133789,-2.161964178085327,0.9265560507774353
73561,,,-1.766920804977417,
73562,2.6951339883707073,8.47547435760498,,1.3910311460494995
73582,1.9692508121075711,9.442731857299805,-0.5339069962501526,1.4053963422775269
73601,,,-0.17477671802043915,
73602,1.6648014917116756,,,
73603,,10.60391902923584,,0.8930372595787048
73621,2.10667868759653,,-0.6991068720817566,
73622,,10.967838287353516,,1.194706678390503
73641,1.8154048661478925,11.018115997314453,-1.1779472827911377,0.6105214357376099
73661,2.887758225293285,,-1.0031704902648926,
73662,,11.520898818969727,,1.8195933103561401
73680,,,-0.849941611289978,
73681,3.661158730778157,11.439496040344238,,2.8874073028564453
73701,3.871350200022703,11.240777015686035,-0.9840168952941895,3.294421434402466
73721,3.117509332931975,12.54561710357666,-1.8722656965255737,0.5770025849342346
73741,4.998748431919746,14.487314224243164,-2.3798365592956543,-0.5291185975074768
73760,7.915977314165251,,-4.709394931793213,-6.349422931671143
73761,,12.983756065368652,,
73780,,,-2.9544448852539062,
73781,3.091166641092474,10.618284225463867,,-2.427720546722412
73800,,,-1.2713210582733154,
73801,2.067651038413008,8.860940933227539,,-2.0398597717285156
73820,,,-0.49799394607543945,
73821,3.988193492316204,9.634267807006836,,-4.0533833503723145
73841,4.428912597910096,10.793061256408691,0.43095630407333374,-4.0078935623168945
73860,3.267706540737242,10.36449909210205,1.0079588890075684,-2.190694570541382
73880,1.784183295485884,,0.18914192914962769,
73881,,9.253589630126953,,-0.8595184087753296
73900,1.5197145797635565,,-1.3072341680526733,-0.8762778043746948
73901,,8.327033042907715,,
73920,1.6224697661558578,,-2.4660277366638184,
73921,,8.681375503540039,,-0.6607996821403503
73940,1.4436108443669142,9.346963882446289,-2.6001031398773193,-0.4357447028160095
73959,,,-1.8746598958969116,
73960,1.0769593945342535,8.966285705566406,,-0.7015010714530945
73979,,,-0.3495534360408783,
73980,1.5562094135430646,8.4108304977417,,-0.8978256583213806
73999,,,0.6967126727104187,
74000,2.583163799342465,7.817068576812744,,-0.9792284965515137
74019,,,0.9169792532920837,
74020,2.845543096961035,7.5417351722717285,,-0.7996633648872375
74039,,,1.015141487121582,
74040,2.7554318794658506,7.6566572189331055,,-0.5961562395095825
74059,2.362765673680559,,0.6727706789970398,
74060,,7.951143741607666,,-0.002394201699644327
74079,,,0.4692635238170624,
74080,2.2640948159680416,8.188169479370117,,0.5003881454467773
74099,,,0.5913678407669067,
74100,2.6013360368834184,7.845798969268799,,0.6033388376235962
74119,2.7313971298708823,7.876923561096191,0.7589619159698486,0.8044517636299133
74139,1.924460308170103,8.681375503540039,0.4644751250743866,0.5985504388809204
74159,1.2054041293235371,,0.26336219906806946,0.13407529890537262
74160,,10.249577522277832,,
74179,2.4329572552470737,,0.7445967197418213,
74180,,11.549629211425781,,0.4429273009300232
74199,2.94968177242796,,0.35673606395721436,
74200,,12.069170951843262,,1.048660397529602
74218,,,-0.44771572947502136,
74219,3.5892928637858357,12.291831970214844,,2.0183119773864746
74238,,,-1.0295066833496094,
74239,3.964993839523706,,,2.9879636764526367
74240,,11.60948371887207,,
74258,3.7503066891190606,10.38604736328125,-0.9816226959228516,3.2776620388031006
74279,2.066395173647063,11.494562149047852,-0.44532153010368347,0.9169792532920837
74297,,,-0.7350199222564697,
74298,5.650981324982656,13.412318229675293,,-4.534617900848389
74337,4.740926810648502,12.588712692260742,3.509899616241455,-1.556231141090393
74376,,,0.9193734526634216,
74377,4.163643134150616,8.966285705566406,,-4.1874589920043945
74416,4.405896761106784,9.102754592895508,-4.067748546600342,-0.5985504388809204
74457,2.2948391773663763,8.446743965148926,-1.403002142906189,-1.05105459690094
74496,,,2.4229321479797363,
74497,2.9562866402224457,8.863334655761719,,-1.6831238269805908
74536,2.257472662776042,7.649474620819092,-0.3974374830722809,-0.8834604024887085
74576,2.905826660825396,,-2.3343467712402344,
74577,,7.709329605102539,,-0.26096799969673157
74616,1.6231602010629818,8.465897560119629,-1.0797849893569946,0.30885201692581177
74655,2.17536305872281,8.324639320373535,-1.290474772453308,0.9361328482627869
74695,1.705124547442221,9.373299598693848,-0.7829039692878723,1.1348515748977661
74735,,,-1.6184803247451782,
74736,1.7710168930359476,10.682928085327148,,0.5219359993934631
74775,3.0388043840720913,11.135432243347168,-0.7469909191131592,2.2816741466522217
74932,3.817035291325215,,-0.6823474764823914,3.0382418632507324
74933,,11.587936401367188,,
74938,3.9536263973418504,9.23443603515625,-1.3718775510787964,-4.185064792633057
74973,,,1.2186486721038818,
74974,2.9402104311520914,9.404424667358398,,-2.3918075561523438
75013,2.42972311993459,7.568071365356445,-0.27054479718208313,-1.2234370708465576
75053,1.693875736763674,9.509769439697266,-2.1811177730560303,-0.5027823448181152
75092,,,-0.21547815203666687,
75093,0.5277482918260362,9.299078941345215,,-0.6153098344802856
75132,,,0.35434186458587646,
75133,2.1897923039229243,7.6997528076171875,,-0.19871874153614044
75172,2.7402795310728334,7.113173484802246,-0.11971008777618408,0.05027823522686958
75212,2.3356467994283054,7.592013359069824,0.24420857429504395,0.15801730751991272
75252,2.7421728063119057,11.851298332214355,0.22744916379451752,1.0965443849563599
75292,2.3891996235786985,11.348516464233398,1.2952631711959839,0.6775590777397156
75332,,,1.9297266006469727,
75333,3.0418205396496636,10.342951774597168,,2.207453966140747
75372,,,-0.27054479718208313,
75373,1.6376019919278506,11.24795913696289,,-0.6392518281936646
75411,,,1.338358759880066,
75412,8.57267390695803,,,
75413,,17.990032196044922,,-2.652775526046753
75432,4.363867410409575,13.060370445251465,2.655169725418091,-2.387019157409668
75451,,,2.7006595134735107,
75452,5.606565319026763,8.5903959274292,,-5.643133640289307
75471,3.173847205471492,,0.8403648138046265,-3.552995204925537
75472,,8.631096839904785,,
75491,,,-2.2002713680267334,
75492,3.5999107296789616,8.341399192810059,,-1.192312479019165
75511,,,-4.67827033996582,
75512,5.733811852350432,,,
75513,,8.212111473083496,,-0.586579442024231
75531,5.58341135378552,,-4.757278919219971,-0.1628057211637497
75532,,7.8960771560668945,,
75552,2.389045542624989,8.47786808013916,-1.7956513166427612,-0.9457096457481384
75571,1.5597638396480515,8.796297073364258,1.1085153818130493,-1.2641384601593018
75591,2.14807758437683,8.860940933227539,1.9393033981323242,-1.091755986213684
75611,1.8194032944287861,8.315062522888184,1.094150185585022,-0.9289502501487732
75631,,,-0.5315127968788147,
75633,2.0316507971094007,7.793126583099365,,-0.8140285611152649
75650,,,-1.2737152576446533,
75651,2.7477313133661525,7.2568254470825195,,-0.9385270476341248
75671,2.0940503716299044,7.953537940979004,-1.1037269830703735,-0.2825157940387726
75691,,,-0.6105214357376099,
75692,1.8113611523922424,8.406042098999023,,0.2322375625371933
75710,,,-0.5195417404174805,
75711,1.855578417297714,8.401253700256348,,0.2992752194404602
75731,2.276265590892944,8.094796180725098,-1.2617442607879639,0.33997663855552673
75750,,,-1.6759412288665771,
75751,2.453062992162669,,,0.48602294921875
75752,,8.209717750549316,,
75770,2.1684845731721714,,-1.170764684677124,0.8786720037460327
75771,,8.899248123168945,,
75790,,,-0.586579442024231,
75791,2.2850121607550764,10.132261276245117,,1.2306196689605713
75810,,,-0.43095630407333374,
75811,2.7196893055964737,11.183316230773926,,1.2761094570159912
75830,,,-1.115697979927063,
75831,2.2939128849080914,11.070788383483887,,0.7661445140838623
75850,2.1650271692839778,,-1.6328455209732056,
75851,,10.812214851379395,,0.5746083855628967
75870,,,-1.1444283723831177,
75871,2.4161660125234032,10.663774490356445,,1.3072341680526733
75890,3.537544649199578,10.14902114868164,-0.5841852426528931,2.760514497756958
75909,,,-0.7996633648872375,
75910,3.6430183369638134,,,2.920926094055176
75911,,10.448296546936035,,
75929,,,-2.3942017555236816,
75930,3.3216730897965436,12.641385078430176,,-0.45010992884635925
75949,7.147733059552868,,-3.845088005065918,-2.583343744277954
75950,,15.957354545593262,,
75969,,,-2.8802247047424316,
75970,6.0711193358584525,13.883975982666016,,-4.759673118591309
75989,,,-2.6671407222747803,
75990,2.0533236194149627,11.111490249633789,,-1.1420341730117798
76009,3.1925399428865835,,-2.0614075660705566,
76010,,9.433155059814453,,-3.7158010005950928
76029,,,-1.290474772453308,
76030,4.199661813471911,10.034099578857422,,-4.721365928649902
76049,4.155678846079534,9.93593692779541,0.8451532125473022,-3.8331170082092285
76069,4.412083220858183,8.724471092224121,2.4181437492370605,-2.118868589401245
76088,,,1.8195933103561401,
76089,3.8065584505625063,7.908048152923584,,-1.335964560508728
76108,2.292429768059557,,-0.45010992884635925,
76109,,7.690176010131836,,-1.3766659498214722
76128,,,-2.0422539710998535,
76129,0.968928966603488,,,
76130,,9.121908187866211,,-1.070208191871643
76148,,,-2.58813214302063,
76149,1.3461122375387706,9.806650161743164,,-0.8307880163192749
76168,,,-2.0015525817871094,
76169,0.8403842694782578,9.50498104095459,,-0.828393816947937
76188,,,-0.5937620401382446,
76189,1.1640095026637733,8.650250434875488,,-1.0319008827209473
76208,2.348172503943517,,0.1364694982767105,-0.689530074596405
76209,,7.68538761138916,,
76228,,,0.40701428055763245,
76229,2.962205922141622,7.096413612365723,,-0.5961562395095825
76247,,,0.2561795711517334,
76248,2.7750867641047416,7.271190643310547,,-0.33997663855552673
76268,2.456323664291028,7.556100368499756,0.0454898327589035,-0.2777273952960968
76287,,,0.4189853072166443,
76288,2.294937042835514,7.85537576675415,,-0.4668693244457245
76307,,,0.6871358752250671,
76308,2.3865485247704443,8.087613105773926,,-0.1173158809542656
76327,,,1.173158884048462,
76328,2.423384952528861,9.552865028381348,,0.38546648621559143
76347,3.0205444373183687,,1.2018892765045166,
76348,,11.434707641601562,,0.4836287498474121
76367,3.3634893727345188,,1.335964560508728,0.31364041566848755
76368,,12.050017356872559,,
76387,2.6342703295058376,,1.4269442558288574,
76388,,11.061211585998535,,0.13407529890537262
76407,1.8933886041543486,10.129867553710938,0.8355764150619507,0.43335050344467163
76427,,,0.36152446269989014,
76428,2.8565785225349076,10.484209060668945,,1.843535304069519
76446,,,-0.3926490843296051,
76447,3.742168896336195,9.940725326538086,,2.9927520751953125
76466,,,-1.6304513216018677,
76467,5.238625511559899,9.011775016784668,,4.338293552398682
76486,,,-1.5418659448623657,
76487,2.7449583308213543,10.223240852355957,,1.7932571172714233
76506,,,-0.2968810200691223,
76507,7.475722119207835,,,-7.546523571014404
76508,,12.100295066833496,,
76527,11.379235453742872,17.841590881347656,2.7988216876983643,-8.073247909545898
76546,,,3.292027235031128,
76547,6.945561030160317,14.798561096191406,,-4.153939723968506
76566,,,0.6536170840263367,
76567,3.3807248199502338,10.295066833496094,,-3.976768970489502
76586,,,-1.3192051649093628,
76587,3.587294112089342,10.314221382141113,,-3.7900211811065674
76606,4.606728417902296,,-4.10366153717041,
76607,,9.801861763000488,,-1.2856862545013428
76627,5.465196599469191,8.118738174438477,-4.5394062995910645,0.7086837291717529
76646,3.9090075715841417,,-2.583343744277954,-0.014365210197865963
76647,,7.376535415649414,,
76665,,,0.17956513166427612,
76666,1.6342941935240203,8.317456245422363,,-1.3000515699386597
76685,,,2.0829553604125977,
76686,2.608926700297817,9.102754592895508,,-2.252943754196167
76705,,,2.3343467712402344,
76706,3.0783028333385647,8.303091049194336,,-2.1140801906585693
76725,2.6724702049428677,,1.0199298858642578,
76726,,7.524975776672363,,-1.7070658206939697
76744,2.9053079042073167,6.947973251342773,-0.7733271718025208,-1.0055646896362305
76764,,,-1.2856862545013428,
76765,3.1048145684788766,6.871358871459961,,-1.1563993692398071
76784,2.2190663286827976,7.60637903213501,-0.7709329724311829,-0.6057330369949341
76805,1.4110694527838925,8.631096839904785,-0.43095630407333374,-0.031124621629714966
76825,1.6088942022540298,8.767566680908203,-0.8212111592292786,0.27054479718208313
76844,2.6244374535277553,,-1.8100165128707886,
76845,,8.377311706542969,,0.7829039692878723
76864,,,-1.6855180263519287,
76865,3.2193161549834315,8.446743965148926,,1.7381904125213623
76884,2.4837692769900306,,-0.6943184733390808,1.5634137392044067
76885,,9.399636268615723,,
76903,,,-0.5410895943641663,
76904,1.8207093162406802,10.359710693359375,,0.849941611289978
76923,,,-1.0295066833496094,
76924,2.272719646787854,10.891223907470703,,1.0079588890075684
76943,2.3948041502129556,11.319786071777344,-0.9385270476341248,0.9241618514060974
76963,3.6212767850012333,,-0.8930372595787048,
76964,,11.743558883666992,,2.2361843585968018
76983,,,-1.644816517829895,
76984,4.055552013749851,12.430695533752441,,2.140416383743286
77004,5.80722955462393,14.267047882080078,-4.273650169372559,-0.9313444495201111
77023,,,-5.719748020172119,
77024,11.007856164524824,17.410634994506836,,-6.797138690948486
77043,,,-0.06464344263076782,
77044,4.574831041228313,14.13057804107666,,-1.5753847360610962
77063,,,-0.14844051003456116,
77064,1.3142912766460328,9.0859956741333,,0.13168109953403473
77083,,,-0.8307880163192749,
77084,3.8029194509084276,8.274360656738281,,-3.84269380569458
77103,,,-1.4724340438842773,
77104,4.726932530066283,,,
77105,,9.174580574035645,,-4.982333660125732
77123,,,-0.17238251864910126,
77124,3.882760797843339,9.634267807006836,,-3.8977603912353516
77143,,,1.1827356815338135,
77144,3.0197526423729086,9.148244857788086,,-1.6519991159439087
77163,,,0.6607996821403503,
77164,2.140266221323513,8.932766914367676,,-0.30885201692581177
77183,,,-1.2545616626739502,
77184,1.043318386265345,8.674192428588867,,-0.524330198764801
77203,,,-2.5977089405059814,
77204,1.4705740782112393,9.99339771270752,,-0.363918662071228
77223,1.8743705328684277,,-2.940079689025879,-0.8092401623725891
77224,,10.24239444732666,,
77242,1.2684336451105118,8.841787338256836,-1.9752163887023926,-0.9002198576927185
77261,,,-0.3423708379268646,
77262,2.116307487450538,7.757213592529297,,-0.9193734526634216
77281,,,0.7398083209991455,
77282,3.280636248635593,6.92881965637207,,-0.9193734526634216
77302,3.2355126485611247,,0.828393816947937,-0.6703764796257019
77303,,6.950367450714111,,
77322,2.5911382371545115,,0.5746083855628967,
77323,,7.544129371643066,,-0.19871874153614044
77342,1.8685458681000708,8.576030731201172,0.15322890877723694,0.5027823448181152
77362,1.7448240438465379,8.822632789611816,0.17956513166427612,0.5291185975074768
77381,,,0.6177040338516235,
77382,2.2656275255912646,8.180987358093262,,0.45250412821769714
77402,2.7061080789685015,,1.1994950771331787,0.7182605266571045
77403,,8.11634349822998,,
77421,,,1.5418659448623657,
77422,2.623483401380332,8.5903959274292,,0.7565677165985107
77442,2.0514483429524835,,1.41257905960083,0.5913678407669067
77443,,9.830592155456543,,
77462,1.8223827197691578,,1.2952631711959839,
77463,,10.632649421691895,,0.021547814831137657
77482,2.4667644966761153,11.382035255432129,1.1779472827911377,0.8906430602073669
77501,,,0.8643068075180054,
77502,3.9341423614296316,12.205639839172363,,2.58813214302063
77521,,,0.4644751250743866,
77522,3.842492122604843,11.374852180480957,,3.181894063949585
77541,,,-0.2059013396501541,
77542,3.8042515812422013,9.751583099365234,,3.624821424484253
77561,3.2443314047794325,9.550470352172852,-0.9169792532920837,3.026270866394043
77581,5.1807803098703795,,0.05985504388809204,
77582,,10.63743782043457,,-5.07570743560791
77601,9.176754019317217,16.35479164123535,2.2218191623687744,-6.186617374420166
77621,7.063676584186618,,2.367865562438965,
77622,,15.818490982055664,,-3.24414324760437
77640,,,1.158793568611145,
77641,3.3410022890093947,10.955866813659668,,-3.268085241317749
77660,,,-0.47165772318840027,
77661,4.00511462329756,10.273519515991211,,-4.041412353515625
77680,,,-3.0573954582214355,
77681,4.005623678920538,,,-1.5203180313110352
77682,,10.139444351196289,,
77701,4.949309699736545,9.437943458557129,-4.180276393890381,0.363918662071228
77720,,,-3.004723072052002,
77721,3.8241768543415,8.5903959274292,,0.011971008032560349
77741,1.6520470607603153,8.611943244934082,-0.586579442024231,-0.6919242739677429
77760,2.251921363202944,,1.8195933103561401,-1.577778935432434
77761,,8.927978515625,,
77780,3.7775702107820175,,2.913743495941162,
77781,,7.9176249504089355,,-1.98958158493042
77799,,,1.7381904125213623,
77800,3.608384033504742,6.766014099121094,,-1.3215993642807007
77819,,,-0.31603461503982544,
77820,3.4785509916260784,6.354211330413818,,-0.7541735172271729
77839,,,-1.7405846118927002,
77840,3.8632337299197608,6.299144744873047,,-0.6560112833976746
77860,3.1704657670335505,7.1251444816589355,-1.9249382019042969,-0.4118026793003082
77879,,,-1.6400281190872192,
77880,2.2853619865986303,8.075642585754395,,0.06224924325942993
77899,,,-1.2665326595306396,
77900,1.6019715321805792,,,
77901,,8.774748802185059,,0.11971008777618408
77919,2.1336306166143886,,-1.7357962131500244,0.6536170840263367
77920,,8.968679428100586,,
77939,,,-1.7262194156646729,
77940,2.4430282697755685,8.813055992126465,,1.0247182846069336
77959,2.4677492841739443,8.973467826843262,-0.8212111592292786,1.5083470344543457
77979,2.0804779957857007,,0.035913024097681046,1.2018892765045166
77980,,10.14902114868164,,
77999,2.455524413120875,11.092336654663086,-0.17477671802043915,1.2761094570159912
78019,2.1887831058318685,10.898406028747559,-0.6967126727104187,1.0821791887283325
78038,,,-0.790086567401886,
78039,2.288277657487471,11.051634788513184,,1.1420341730117798
78059,3.645444504121465,11.006145477294922,-1.3623007535934448,2.6575639247894287
78079,4.431354404182625,11.329362869262695,-1.721431016921997,3.4332852363586426
78098,3.961459213900044,,-1.7597382068634033,
78099,,12.069170951843262,,2.6144683361053467
78118,4.5025322465096655,,-1.580173134803772,
78119,,13.927071571350098,,-1.7860745191574097
78139,5.998978527856684,,-4.034229755401611,-3.1866824626922607
78140,,13.876792907714844,,
78158,,,-2.207453966140747,
78159,6.8842190053394265,12.071564674377441,,-6.610390663146973
78177,,,-0.05746084079146385,
78178,1.6716372597194271,,,
78179,,9.224859237670898,,-1.5298948287963867
78198,3.104157944908093,9.481039047241211,0.49320554733276367,-2.846705913543701
78218,4.511031299087566,,-0.31842881441116333,
78219,,11.439496040344238,,-4.218583583831787
78237,,,-0.26815059781074524,
78238,3.59632688268449,12.1194486618042,,-2.564189910888672
78258,1.175169877697454,,-0.5339069962501526,-0.028730420395731926
78259,,10.515334129333496,,
78277,,,-1.460463047027588,
78278,0.6419462442278845,9.11233139038086,,-0.2968810200691223
78297,2.0343703731361193,8.149862289428711,-2.274491548538208,-0.912190854549408
78317,,,-2.63362193107605,
78318,2.404626273701241,7.8960771560668945,,0.0454898327589035
78337,1.9990156850958007,,-2.056619167327881,0.23702596127986908
78338,,8.152256965637207,,
78357,1.8343743345399133,,-0.5746083855628967,
78358,,7.970297336578369,,-0.6655880808830261
78377,,,0.3998316824436188,
78378,2.7841605912018292,7.33583402633667,,-1.0534487962722778
78397,3.0584487588358913,7.129932880401611,0.727837324142456,-0.9265560507774353
78417,3.081661458427962,7.137115478515625,0.8810662031173706,-0.5985504388809204
78436,,,0.5650315880775452,
78437,2.7329383781847474,7.412448406219482,,-0.035913024097681046
78457,2.1814566921470466,8.066065788269043,0.35913026332855225,0.2513911724090576
78476,,,0.38546648621559143,
78477,2.6347669823418944,7.608773231506348,,0.4668693244457245
78496,,,1.0654197931289673,
78497,2.674711450718468,7.862558364868164,,0.33518823981285095
78516,1.7875828517039238,9.284713745117188,0.7829039692878723,0.507570743560791
78536,2.6445724506634076,11.836933135986328,0.6560112833976746,0.5315127968788147
78556,,,0.8140285611152649,
78557,3.4897896473185512,12.811373710632324,,0.5051765441894531
78576,,,0.6775590777397156,
78577,4.508412868247114,13.237541198730469,,2.0207061767578125
78595,,,0.6033388376235962,
78596,4.70213981778156,12.749124526977539,,2.9544448852539062
78615,,,-0.24899697303771973,
78616,4.029397228209832,10.735600471496582,,3.4524388313293457
78635,2.8615755879018607,,-1.1013327836990356,2.3295583724975586
78636,,10.11789608001709,,
78655,12.782858600447062,,1.5825673341751099,
78656,,13.060370445251465,,-12.552799224853516
78676,9.070453810268743,18.689138412475586,1.7405846118927002,-1.0869675874710083
78696,4.03026503720805,13.795390129089355,0.14844051003456116,-0.090979665517807
78715,,,-0.9026140570640564,
78716,6.267996246570469,8.609549522399902,,-6.517016887664795
78735,4.313711687225725,,-1.9919757843017578,-4.02465295791626
78736,,9.320627212524414,,
78755,3.5022360607084666,8.729259490966797,-2.8874073028564453,-1.0558429956436157
78775,,,-2.8131868839263916,
78776,3.3393630010813022,8.786720275878906,,0.1867477297782898
78795,,,-0.8475474119186401,
78796,1.292824221367244,9.045293807983398,,-0.5027823448181152
78815,1.8458833798181937,9.030928611755371,1.170764684677124,-1.6639702320098877
78834,,,2.2218191623687744,
78835,2.751439498067046,9.246406555175781,,-1.9057846069335938
78874,2.5383578687230552,,0.44532153010368347,
78875,,7.479485988616943,,-1.3718775510787964
78913,3.116397461169921,7.350199222564697,-2.279279947280884,-1.1875240802764893
78953,1.5282793618465407,8.65743350982666,-1.3215993642807007,-0.002394201699644327
78993,2.2996976985464213,8.183381080627441,-0.9074024558067322,0.8331822156906128
79254,,,-0.45250412821769714,
79255,2.7909787217644273,7.965508937835693,,1.316810965538025
79279,3.728843518681953,,2.161964178085327,
79280,,7.6351094245910645,,-1.9728221893310547
79318,,,-0.272938996553421,
79319,2.8134179206835483,6.97430944442749,,-1.0821791887283325
79358,2.434046915885746,7.709329605102539,-1.922544002532959,-0.11013327538967133
79398,2.6108808911965204,9.318233489990234,-2.4588451385498047,1.0007762908935547
79438,3.190952002556163,8.576030731201172,-2.470816135406494,1.5682021379470825
79478,2.868672415155846,11.176133155822754,0.24420857429504395,1.1994950771331787
79517,1.2641485102453371,,-0.49799394607543945,
79518,,9.998186111450195,,0.3256114423274994
79557,,,-1.6950948238372803,
79558,4.74274995538266,11.21444034576416,,3.756502389907837
79597,8.922082795029823,14.516044616699219,-7.587224960327148,-4.699818134307861
79637,2.7024930535014575,10.752359390258789,-0.9864110946655273,1.721431016921997
79677,5.325855834671466,7.8745293617248535,-1.8770540952682495,-5.612008571624756
79717,2.832111899444321,10.644620895385742,0.031124621629714966,-2.2026655673980713
79757,1.914065800878053,10.441113471984863,-0.11971008777618408,-0.7422025203704834
79797,,,-2.054224967956543,
79798,0.7472711031484136,10.26394271850586,,-0.9193734526634216
79836,,,-1.0007762908935547,
79837,2.0624573443076644,7.714118003845215,,-1.0869675874710083
79876,3.7526293119937737,,0.2777273952960968,
79877,,6.296750545501709,,-0.9074024558067322
79917,2.5801611980085157,7.773972988128662,0.5937620401382446,-0.6392518281936646
79956,,,0.9361328482627869,
79957,2.3696433443596048,8.38688850402832,,-0.2561795711517334
79996,,,1.5298948287963867,
79997,2.7816709564188096,8.597578048706055,,0.3519476354122162
80035,,,1.4652514457702637,
80036,2.7184535774784298,10.910377502441406,,0.706289529800415
80076,2.7678665301607626,,1.1085153818130493,
80077,,11.396400451660156,,1.0893617868423462
80116,3.6920864225379746,,0.13407529890537262,3.0621838569641113
80117,,10.955866813659668,,
80155,,,-0.9528923034667969,
80156,5.350476231279722,7.546523571014404,,4.680664539337158
80195,,,1.3048399686813354,
80196,11.58604944526161,16.084247589111328,,-9.828198432922363
80235,,,0.6177040338516235,
80236,3.0547995778472,11.413159370422363,,-3.047818660736084
80274,,,-2.741360902786255,
80275,3.5214613555646683,,,-2.118868589401245
80276,,10.436325073242188,,
83255,4.002193326429789,,-2.647987127304077,
83256,,7.240066051483154,,0.2944868206977844
83258,2.568370328814569,8.480262756347656,-1.7956513166427612,0.6751648783683777
83297,,,-0.35434186458587646,
83298,1.448795472715899,9.84256362915039,,0.9648633003234863
83337,2.3699248447654253,11.063606262207031,-1.3407529592514038,1.01753568649292
83378,3.2774316278072333,11.671732902526855,-1.292868971824646,2.0470423698425293
83417,4.409879880207773,12.619836807250977,-2.8658595085144043,1.9560627937316895
83456,,,-2.6001031398773193,
83457,5.033418934243656,14.168885231018066,,-1.5610195398330688
83496,2.7671184063755465,,-2.296039342880249,-2.2577321529388428
83497,,8.880094528198242,,
83536,4.078381058996073,,-1.0797849893569946,
83537,,9.964667320251465,,-4.146757125854492
83576,1.9517810317404503,10.086771965026855,0.47165772318840027,-1.2497732639312744
83616,1.5320250437609346,,-1.9393033981323242,
83617,,8.853757858276367,,-1.1348515748977661
83656,,,-1.9728221893310547,
83657,1.355976108723151,8.995016098022461,,-0.8834604024887085
83696,,,0.002394201699644327,
83697,2.6835175216043075,7.304709434509277,,-1.3455413579940796
83736,3.0470003542422575,6.919242858886719,0.5506663918495178,-0.8690952062606812
83776,1.6233714819987737,,0.7493851184844971,-0.3519476354122162
83777,,8.702922821044922,,
83816,1.9998627854007656,,1.4748282432556152,
83817,,9.287108421325684,,-0.004788403399288654
83856,1.6439772735240739,9.983820915222168,0.7589619159698486,0.5841852426528931
83895,,,0.06703764945268631,
83896,1.985501848003341,10.769119262695312,,1.0606313943862915
83935,,,0.6584054827690125,
83936,3.2565737045383787,11.319786071777344,,2.322375535964966
83975,3.3482874805987577,9.6989107131958,-0.28969839215278625,2.9927520751953125
84016,9.137010169305077,16.21592903137207,1.1300631761550903,-6.801927089691162
84054,,,1.5825673341751099,
84055,4.073567032007428,10.412383079528809,,-4.448426723480225
84094,,,-0.4596867263317108,
84095,2.6301368225246753,,,
84096,,9.701305389404297,,-2.964021682739258
84134,,,-4.479551315307617,
84135,5.445478702236268,8.214506149291992,,0.9217676520347595
84174,2.1546007566301446,,-0.8068459630012512,-1.2330138683319092
84175,,8.11634349822998,,
84214,,,1.137245774269104,
84215,2.0319276119614758,8.152256965637207,,-1.0678139925003052
84254,,,-1.1420341730117798,
84255,2.5371370027724955,7.465120792388916,,-0.6584054827690125
84293,1.6945178723016057,,-0.9624691009521484,
84294,,8.224082946777344,,-0.4357447028160095
84333,,,-0.49559974670410156,
84334,1.5265805418106067,8.487444877624512,,0.1412578970193863
88252,,,-1.4221558570861816,
88253,2.7998738328573722,8.26239013671875,,1.5059528350830078
88270,3.619347605007906,,-0.33279404044151306,3.0310592651367188
88271,,10.589553833007812,,
88309,7.531456655619068,,1.4293384552001953,-7.86734676361084
88310,,10.299856185913086,,
88349,6.532351752262213,,3.4835634231567383,
88350,,14.805743217468262,,-2.738966703414917
88389,5.452413518010783,10.579977035522461,1.400607943534851,-6.086060523986816
88428,,,-2.760514497756958,
88429,3.022655928181118,9.354146003723145,,-0.2968810200691223
88468,2.756621106135286,,-1.7908629179000854,
88469,,7.7763671875,,-0.849941611289978
88508,2.6800729012893636,,1.1516109704971313,-2.142810583114624
88509,,7.826645374298096,,
88548,2.0713767717020195,,-0.4165911078453064,
88549,,7.728483200073242,,-1.2952631711959839
88588,2.144680553026494,7.829039573669434,-1.4700398445129395,-0.8403648138046265
88628,1.2823976168747793,8.789113998413086,-0.9983820915222168,-0.2059013396501541
88668,2.122459800707975,8.346187591552734,-1.3407529592514038,0.49320554733276367
88707,,,-0.27054479718208313,
88708,2.1673093600621796,8.042123794555664,,0.4118026793003082
88747,,,-0.7110779285430908,
88748,1.25049800489191,10.500968933105469,,0.12689268589019775
88788,,,-0.6344634294509888,
88789,3.148593794585256,12.425907135009766,,0.7469909191131592
88828,4.01765835709265,11.401188850402832,-0.28969839215278625,2.873042106628418
88867,,,-3.6750996112823486,
88868,4.947547829248857,13.086706161499023,,-3.138798475265503
88908,2.8189314316512415,12.401965141296387,-1.0582371950149536,-1.6352397203445435
98253,4.534063057977988,,-3.0550012588500977,
98254,,11.84650993347168,,-4.46518611907959
98293,2.9533382924069116,9.648633003234863,-3.023876667022705,-3.4787750244140625
98333,2.5633211448422646,10.51054573059082,0.3495534360408783,-2.387019157409668
98373,2.67125636741297,8.135497093200684,0.6248866319656372,-1.5466543436050415
98412,,,-1.3048399686813354,
98413,1.7129334256295654,7.960720539093018,,-1.0295066833496094
98452,0.9521602688567805,8.746018409729004,-1.0295066833496094,-0.9361328482627869
98492,1.7995653660872335,,-0.05506663769483566,-0.8810662031173706
98493,,8.133103370666504,,
98532,1.8211538310636213,8.169015884399414,-0.033518824726343155,-0.5027823448181152
98572,,,0.26336219906806946,
98573,1.9771162621905014,8.489839553833008,,0.08858546614646912
98612,2.3046765343356714,8.949525833129883,0.7924807667732239,0.5889736413955688
98652,,,0.6631938815116882,
98653,2.2848558538200163,9.282320022583008,,0.8930372595787048
98692,2.138396948296524,10.424354553222656,-0.10295066982507706,1.0247182846069336
98731,,,0.14365209639072418,
98732,2.373681957521147,10.967838287353516,,1.0797849893569946
98771,,,1.1779472827911377,
98772,4.067313760855934,11.286267280578613,,2.7437551021575928
98811,,,0.2801215946674347,
98812,2.4195383921078393,10.903194427490234,,-2.892195701599121
98851,,,2.22660756111145,
98852,5.739123465039993,14.987702369689941,,-2.030282974243164
98891,4.276497312083092,9.68694019317627,1.656787633895874,-5.116408824920654
124251,,,1.5849615335464478,
124252,3.0335869973004614,11.185709953308105,,1.436521053314209
124285,3.551740225202195,10.08437728881836,0.9361328482627869,2.647987127304077
124324,,,0.181959331035614,
124325,4.553808425164118,11.91354751586914,,-4.876988887786865
124364,4.674433285232118,14.147337913513184,1.534683346748352,-2.3774423599243164
124403,,,0.31842881441116333,
124404,3.602740775645201,9.660603523254395,,-4.6471452713012695
124443,3.8614595166062107,,-2.8371291160583496,-0.9720458984375
124444,,9.409213066101074,,
124483,3.0229158961906126,8.214506149291992,-1.7884687185287476,-0.9792284965515137
124523,1.587837021264277,8.65743350982666,1.7070658206939697,-1.479616641998291
124563,2.4615660818320175,7.357381820678711,-0.06464344263076782,-1.2401964664459229
124602,3.0972887857884355,7.841010570526123,-2.185906171798706,-0.4141969084739685
124642,,,-0.8307880163192749,
124643,1.5172951531447636,8.80587387084961,,-0.13168109953403473
124682,2.076863529840618,8.4108304977417,-0.9864110946655273,0.35913026332855225
124722,2.5105866391796057,8.006210327148438,-0.6943184733390808,0.8738836050033569
124762,1.7866079492077616,10.60152530670166,-0.38307225704193115,0.7757213711738586
124802,3.0979661052960195,12.052411079406738,-1.4915876388549805,0.912190854549408
124841,3.8068069726993747,11.973402976989746,-0.45250412821769714,2.477998733520508
124881,4.560794668388629,9.919178009033203,-0.6057330369949341,4.235342979431152
124921,6.863625567184859,12.449849128723145,-4.8482584953308105,-5.082890033721924
124961,3.0292019561712906,11.429919242858887,-1.0342950820922852,-3.002328872680664
125001,3.3095860169939435,11.535264015197754,-1.9800047874450684,-3.1651346683502197
125041,,,-0.29209262132644653,
125042,1.2767492188107126,9.715670585632324,,-1.4389152526855469
125081,3.480696031746737,6.660669326782227,0.23702596127986908,-1.479616641998291
135252,2.3565544801885916,,-1.7956513166427612,-0.8834604024887085
135253,,7.682993412017822,,
135269,,,-0.07422025501728058,
135270,1.161824577760044,9.119514465332031,,0.009576806798577309
135309,2.174234110715928,7.994239330291748,-0.8212111592292786,0.5147533416748047
135349,1.6526109556036033,9.315838813781738,-0.5506663918495178,0.8643068075180054
135392,,,-0.7829039692878723,
135393,2.4994241051167707,11.420342445373535,,1.072602391242981
135408,3.3877830021171063,12.1194486618042,-0.8451532125473022,1.7070658206939697
135428,4.027734213991729,11.911153793334961,-1.0630255937576294,2.7892448902130127
135448,3.7089578909829863,10.896012306213379,-1.3120225667953491,3.07415509223938
135468,3.621827414383529,10.053253173828125,-1.0654197931289673,3.40216064453125
135488,2.0893434299978884,10.431536674499512,-1.778891921043396,1.764526605606079
135508,6.832257938277524,13.4290771484375,-4.802768707275391,-4.4077253341674805
135528,8.664136468349717,12.895170211791992,-3.950432777404785,-7.826645374298096
135548,2.8736396556641317,10.402806282043457,-0.20111294090747833,-3.004723072052002
135568,1.4763723584016553,9.294290542602539,-0.38546648621559143,-1.5682021379470825
135588,3.524321925099675,11.1474027633667,-2.31758713722229,-3.5625722408294678
135607,,,-2.315192937850952,
135608,4.108886457637023,12.258312225341797,,-3.5960910320281982
135627,,,-1.0438719987869263,
135628,1.7249888848209247,11.24795913696289,,-0.9145850539207458
135647,1.6609056643775117,8.83699893951416,-0.09576806426048279,-0.5817909836769104
135667,,,-0.08379705995321274,
135668,2.997350158255022,7.2783732414245605,,-1.647210717201233
135687,2.4364512216878182,,-0.7781155705451965,
135688,,7.407660007476807,,-1.1875240802764893
135707,1.4521073089911645,,-1.2880805730819702,
135708,,8.305485725402832,,-0.4381389021873474
135727,1.1374345865409878,8.635885238647461,-1.070208191871643,-1.1085153818130493
135747,1.574055476276176,8.312667846679688,-0.4357447028160095,-1.3718775510787964
135767,2.268814998147511,7.666234016418457,-0.05506663769483566,-1.455674648284912
135787,,,0.22744916379451752,
135788,2.662797465295948,7.252037048339844,,-1.0007762908935547
135807,,,0.3998316824436188,
135808,2.49646461370362,7.50582218170166,,-0.6057330369949341
135828,1.9855135557451145,8.216899871826172,0.3926490843296051,-0.17956513166427612
135848,2.311298780076096,8.324639320373535,0.7852981686592102,0.26815059781074524
135867,,,1.4173674583435059,
135868,3.0166010882870298,8.034940719604492,,0.646434485912323
135887,3.0532739983614023,,1.6400281190872192,
135888,,7.982268333435059,,0.5003881454467773
135908,1.8812652181725884,,0.8882488012313843,0.29209262132644653
135909,,8.918401718139648,,
135928,1.8398552831462431,10.647014617919922,0.47884035110473633,0.608127236366272
135947,,,0.5506663918495178,
135948,2.7526851029829187,11.645397186279297,,1.05105459690094
135967,2.923987945490045,,0.5315127968788147,
135968,,11.990161895751953,,0.9959878921508789
135987,3.580820991957072,,0.48602294921875,
135988,,12.215216636657715,,1.8531121015548706
136007,3.562918253656512,11.264719009399414,0.3232172429561615,2.5977089405059814
136027,4.28148544666508,,0.019153613597154617,
136028,,10.393229484558105,,3.734954595565796
136047,1.0016138048763892,10.709263801574707,-0.4118026793003082,-0.35913026332855225
136067,7.096226734568746,14.085088729858398,0.849941611289978,-5.944802761077881
136086,,,3.246537446975708,
136087,7.389198213889016,15.49766731262207,,-3.909731388092041
136107,3.961433334465636,,2.7102363109588623,-2.889801502227783
136108,,11.621455192565918,,
136127,4.720451603960887,10.038887977600098,0.3878606855869293,-5.171475887298584
136147,4.235954862676515,,-1.4245500564575195,
136148,,11.061211585998535,,-4.055777549743652
136167,4.093436658675552,10.65898609161377,-3.3877954483032227,-1.4389152526855469
136186,,,-3.354276657104492,
136187,4.016731555039981,8.69095230102539,,0.19871874153614044
136206,2.523245127995326,,-1.2497732639312744,
136207,,7.977479934692383,,-1.091755986213684
136226,,,1.070208191871643,
136227,2.2793832744576856,8.169015884399414,,-1.802833914756775
136246,2.5767494924968006,8.51138687133789,2.011129379272461,-1.7142484188079834
136267,2.386946896701076,,1.4748282432556152,
136268,,8.147468566894531,,-1.5514427423477173
136286,,,0.24899697303771973,
136287,2.9205737148674418,7.079654216766357,,-1.7118542194366455
136305,,,-1.4413094520568848,
136306,3.1111814532577835,7.007828235626221,,-1.2665326595306396
136326,3.3359249213023974,7.297526836395264,-2.516305923461914,-0.5267243981361389
136345,,,-2.0374655723571777,
136346,2.5479314754260556,7.8314337730407715,,-0.42616790533065796
136365,,,-1.2761094570159912,
136366,1.6479402488181805,8.506598472595215,,-0.06703764945268631
136385,,,-1.039083480834961,
136386,1.3020764566875704,8.93037223815918,,0.0454898327589035
136405,2.0929852127959876,,-1.6089035272598267,
136406,,8.83699893951416,,0.730231523513794
136425,2.7146693331449914,,-1.764526605606079,1.3742717504501343
136426,,8.628703117370605,,
136445,,,-1.2401964664459229,
136446,2.680032513264673,8.89445972442627,,1.723825216293335
136464,,,-0.3711012601852417,
136465,2.2017777023019387,9.794678688049316,,1.5083470344543457
136485,1.744784895091415,10.448296546936035,-0.19153612852096558,0.912190854549408
136505,,,-0.40462008118629456,
136506,1.552000244101279,10.924742698669434,,0.40222588181495667
136525,,,-0.10534487664699554,
136526,2.501377679786888,11.884817123413086,,0.6368576288223267
136544,3.920107013643006,,0.17477671802043915,
136545,,12.564770698547363,,2.0470423698425293
136564,4.140259233550007,,-0.3256114423274994,
136565,,12.36365795135498,,2.6815059185028076
136584,,,-1.072602391242981,
136585,4.292311363807625,11.437101364135742,,3.512293815612793
136604,3.5052065950855105,,-2.540247917175293,
136605,,10.793061256408691,,2.557007312774658
136624,4.562936004290226,12.816162109375,-2.7533318996429443,-3.023876667022705
136645,4.9185000519701605,12.54801082611084,-4.529829502105713,-2.0853497982025146
136664,5.909082127277811,10.81700325012207,-2.434903144836426,-5.892130374908447
136683,2.5440738931036924,,-1.4460978507995605,
136684,,8.848969459533691,,-2.6599581241607666
136704,,,-1.3982137441635132,
136705,2.514215489125154,9.387664794921875,,-2.8107926845550537
136723,,,-1.4700398445129395,
136724,3.1836915545271776,10.673351287841797,,-3.3662476539611816
136743,,,-0.5889736413955688,
136744,2.418041123399411,10.852916717529297,,-2.2888567447662354
136763,1.6293079054831077,,0.06703764945268631,
136764,,9.648633003234863,,-0.933738648891449
136783,,,-0.1843535304069519,
136784,2.2206158381798384,8.070854187011719,,-1.2401964664459229
136803,2.5124770661631133,,-0.9624691009521484,-1.1899182796478271
136804,,7.364564418792725,,
136823,2.280722883804865,,-1.6041151285171509,-0.7541735172271729
136824,,7.513004779815674,,
136843,2.1840982417343593,,-1.455674648284912,
136844,,7.642292022705078,,-1.0247182846069336
136863,2.059347922996607,7.826645374298096,-0.5410895943641663,-1.2545616626739502
136882,,,0.0454898327589035,
136883,2.1337788946053506,7.931990146636963,,-1.3335703611373901
136902,,,0.16519992053508759,
136903,1.834137249019873,8.221688270568848,,-1.0749965906143188
136922,,,0.17477671802043915,
136923,1.6295039043350477,8.403648376464844,,-0.706289529800415
136942,,,0.033518824726343155,
136943,1.1748907829821205,9.006986618041992,,-0.29209262132644653
136962,,,0.2777273952960968,
136963,1.4166388041430351,9.153033256530762,,0.016759412363171577
136982,1.8947575070274856,8.892065048217773,0.7254431247711182,0.15562310814857483
137002,,,0.9289502501487732,
137003,2.286084526168031,8.880094528198242,,0.6536170840263367
137022,,,0.5147533416748047,
137023,2.2653675853900697,9.500192642211914,,1.2114660739898682
137042,,,0.5219359993934631,
137043,2.2997059924417216,10.390835762023926,,1.2306196689605713
137063,2.4509671190313833,10.884040832519531,0.751779317855835,1.1444283723831177
137082,2.221932828126516,10.92953109741211,0.6751648783683777,0.9600749015808105
137102,2.3976020476229722,,0.6727706789970398,1.01753568649292
137103,,11.30302619934082,,
137122,3.237762888246731,11.226411819458008,0.7422025203704834,2.2625205516815186
137141,,,0.4141969084739685,
137142,3.248747804471456,10.759542465209961,,2.6671407222747803
137162,1.6720156031158884,11.32457447052002,-0.6392518281936646,-0.7829039692878723
137181,,,-0.4118026793003082,
137182,7.114235761054534,15.12417221069336,,-5.03021764755249
137201,,,2.626439332962036,
137202,7.289520151177568,16.33324432373047,,-2.274491548538208
137221,,,3.6343982219696045,
137222,4.383473718713432,11.135432243347168,,-2.6623523235321045
137241,5.394957285969152,,2.382230758666992,-5.142745018005371
137242,,8.377311706542969,,
137260,,,0.3687070608139038,
137261,2.9967859853625565,9.318233489990234,,-3.3207578659057617
137281,3.539882943755791,9.311050415039062,-2.7724854946136475,-1.3479355573654175
137301,,,-5.116408824920654,
137302,5.68823807507049,9.251194953918457,,-0.2537853717803955
137320,4.707231218197928,,-4.146757125854492,
137321,,8.5903959274292,,-0.4405331015586853
137340,,,-0.7805097699165344,
137341,1.8654574116078622,8.501810073852539,,-1.2114660739898682
137360,2.12822837186417,,1.534683346748352,
137361,,8.540117263793945,,-1.3838485479354858
137381,2.797833667318425,,2.406172752380371,
137382,,8.51138687133789,,-1.3096283674240112
137399,,,1.7142484188079834,
137400,2.83614363328414,7.6997528076171875,,-1.3982137441635132
137420,2.810568421727258,,-0.10534487664699554,
137421,,7.089231014251709,,-1.2713210582733154
137440,2.696498355666214,,-1.680729627609253,-0.7350199222564697
137441,,7.5968017578125,,
137460,2.8818825976822393,,-2.382230758666992,-0.08140286058187485
137461,,7.924807548522949,,
137481,,,-1.745373010635376,
137482,2.0746535368154957,8.56884765625,,0.30885201692581177
137501,1.553826635286065,,-1.2641384601593018,0.38307225704193115
137502,,8.999804496765137,,
137519,,,-1.3120225667953491,
137520,1.6005713396413326,9.02135181427002,,0.4405331015586853
137539,,,-1.2090718746185303,
137540,1.9482892406011265,8.38449478149414,,0.4812345504760742
137559,1.9000453341245613,8.274360656738281,-0.524330198764801,0.5123591423034668
137579,1.5531934911105723,,-0.031124621629714966,
137580,,9.165003776550293,,0.6799532771110535
137599,1.530745286868545,10.529699325561523,0.016759412363171577,0.5219359993934631
137619,1.5272560972540694,,-0.4165911078453064,0.08858546614646912
137620,,11.058817863464355,,
137637,,,-1.0462661981582642,
137638,1.8751796000612746,11.26950740814209,,0.2298433631658554
137657,3.0100669437707603,,-0.7254431247711182,
137658,,12.126631736755371,,1.1420341730117798
137677,4.012301602316209,11.398794174194336,-0.5123591423034668,3.0142998695373535
137697,4.049544819813786,10.144232749938965,-0.7948749661445618,3.4739866256713867
137717,4.241024637752926,9.672574996948242,-1.2521674633026123,3.7493197917938232
137738,2.8118575315999097,11.561599731445312,-2.612074136734009,-1.158793568611145
137757,,,-2.9520506858825684,
137758,5.4816265120426895,14.767436027526855,,-0.6488286852836609
137778,6.48453677791414,12.595894813537598,-3.7014358043670654,-5.5976433753967285
137798,3.443771467470804,11.013327598571777,-2.669534921646118,-3.227383852005005
137818,,,-2.008735179901123,
137819,2.233698282267512,8.99740982055664,,-2.427720546722412
137838,2.8841914985452615,9.976638793945312,-1.522712230682373,-3.3877954483032227
137858,2.972938233484225,,-0.6703764796257019,-3.1962592601776123
137859,,10.900800704956055,,
137878,1.8819837843696015,10.017339706420898,0.014365210197865963,-1.8770540952682495
137897,,,-0.1412578970193863,
137898,1.57886880398929,8.935160636901855,,-1.3694833517074585
137917,,,-1.1300631761550903,
137918,1.9416010123792098,8.109161376953125,,-1.6280571222305298
137938,1.7543369775340791,8.346187591552734,-1.8171991109848022,-1.403002142906189
137957,,,-2.051830768585205,
137958,1.4562771970640482,8.779537200927734,,-1.0893617868423462
137977,1.2419592209754138,,-1.5969325304031372,
137978,,8.769960403442383,,-1.2042834758758545
137997,1.4649270809630979,,-0.4165911078453064,
137998,,8.520963668823242,,-1.45806884765625
138018,2.0325858785168567,8.176198959350586,0.3471592366695404,-1.4197616577148438
138036,,,0.6584054827690125,
138037,2.4287362643809116,7.82185697555542,,-1.403002142906189
138059,2.0186188221170256,8.188169479370117,0.629675030708313,-0.8978256583213806
138076,,,0.5602431893348694,
138077,1.9093615667242076,8.310274124145508,,-0.45010992884635925
138096,1.9710258771570839,8.216899871826172,0.4118026793003082,-0.181959331035614
138115,,,0.5841852426528931,
138116,2.4067514070542613,7.814674377441406,,-0.05985504388809204
138136,2.776301922267538,7.718906402587891,0.8523358106613159,0.37828385829925537
138156,2.22898449257359,,1.0247182846069336,
138157,,8.645462036132812,,0.28969839215278625
138176,1.4692250558924118,10.1753568649292,0.6823474764823914,-0.1173158809542656
138195,2.4132940062941834,11.769895553588867,0.7493851184844971,-0.3998316824436188
138216,3.034779332542813,12.322956085205078,0.7948749661445618,0.09816227108240128
138236,2.719663970610544,,0.4118026793003082,0.5722141861915588
138237,,11.899182319641113,,
138255,2.91335142730867,,0.009576806798577309,
138256,,11.118672370910645,,1.7262194156646729
138275,,,-0.5291185975074768,
138276,3.376040828005977,10.24000072479248,,2.58813214302063
138296,4.1820923918885375,9.861717224121094,-1.0965443849563599,3.4548330307006836
138315,,,-1.742978811264038,
138316,2.043072028676809,11.068394660949707,,-0.38307225704193115
138335,6.026161379491898,,-0.6919242739677429,-4.8482584953308105
138336,,13.955801963806152,,
138355,7.840660185752058,,2.1547815799713135,-4.474762916564941
138356,,16.201562881469727,,
138375,,,3.4404678344726562,
138376,4.678091958540212,12.054805755615234,,-2.6886885166168213
138395,4.005557252974966,8.762778282165527,1.6759412288665771,-4.084507942199707
138415,,,-0.6129156351089478,
138416,3.136971089437516,8.78432559967041,,-3.3734302520751953
138435,3.8301424899375607,8.808267593383789,-3.224989652633667,-1.6759412288665771
138454,,,-4.141968727111816,
138455,4.611491296152179,8.465897560119629,,-0.24181437492370605
138474,,,-2.363077163696289,
138475,2.8268815146823854,8.540117263793945,,-0.49799394607543945
138494,,,0.5674257874488831,
138495,0.9259996760102069,9.62947940826416,,-1.2497732639312744
138514,,,2.6360161304473877,
138515,3.0591116085586294,9.370905876159668,,-1.9943699836730957
138534,3.1404883511549975,,2.5450363159179688,
138535,,8.482656478881836,,-1.7741034030914307
138554,,,0.6631938815116882,
138555,2.488378310294241,7.481880187988281,,-1.1779472827911377
138574,2.6046689477361658,7.55131196975708,-1.4867992401123047,-0.8044517636299133
138594,3.3318758321205406,,-2.5689783096313477,
138595,,7.3693528175354,,-0.6392518281936646
138614,2.699165310586006,7.6111674308776855,-2.0039467811584473,-0.6823474764823914
138634,1.446430083514572,8.427590370178223,-0.9696516990661621,-0.4572925269603729
138653,,,-0.5171475410461426,
138654,0.7274599992432316,9.157821655273438,,-0.3519476354122162
138674,1.0009740019974873,,-0.9002198576927185,0.07422025501728058
138675,,9.373299598693848,,
138693,,,-0.9720458984375,
138694,1.673014742524654,8.825027465820312,,0.5267243981361389
138713,,,-0.4812345504760742,
138714,2.0204781944497263,8.5903959274292,,0.8259995579719543
138734,1.568166604552523,,-0.26096799969673157,0.6943184733390808
138735,,9.641449928283691,,
138753,1.509082160801093,,-0.6607996821403503,0.21308395266532898
138754,,10.836156845092773,,
138774,1.642764848580753,11.130643844604492,-0.9696516990661621,-0.026336219161748886
138792,,,-0.727837324142456,
138793,1.9850284371633182,11.128249168395996,,0.5793967843055725
138832,,,-1.6112977266311646,
138833,4.055548016150679,11.310209274291992,,2.8107926845550537
138870,,,-3.5482068061828613,
138871,3.6827480927161305,12.143390655517578,,-1.4748282432556152
139030,1.4011777743153402,9.624691009521484,0.24420857429504395,-1.50355863571167
139069,1.1212484007178631,,-1.7741034030914307,
139070,,9.042900085449219,,-1.2497732639312744
139109,0.8775595286682871,9.10993766784668,-1.3311761617660522,-1.2737152576446533
139149,1.5722299891633102,8.216899871826172,-0.4405331015586853,-1.048660397529602
139189,1.8371631832625606,8.099584579467773,0.2059013396501541,-0.9528923034667969
139229,1.888979613550055,8.1139497756958,0.4812345504760742,-0.871489405632019
139269,,,0.22026655077934265,
139270,1.5813799235528339,8.310274124145508,,-0.6919242739677429
139310,1.8567299501716397,8.939949035644531,0.9385270476341248,0.043095629662275314
139350,2.0523698739028986,10.103530883789062,1.1540051698684692,0.35673606395721436
139388,2.937146591679275,11.293449401855469,0.019153613597154617,1.4963760375976562
139427,,,0.2322375625371933,
139428,2.4682332717358,10.572794914245605,,1.5155296325683594
139467,4.3399505464751105,,0.27054479718208313,
139468,,9.861717224121094,,3.797203779220581
139507,9.486448560911935,14.43464183807373,0.7852981686592102,-8.846575736999512
139547,4.0086735623967185,12.148179054260254,2.52109432220459,-3.047818660736084
139587,3.3575427359263466,9.229647636413574,-0.13168109953403473,-4.0533833503723145
139626,3.8686597083282956,,-3.023876667022705,-0.33518823981285095
139627,,8.20732307434082,,
139667,1.7495655474205787,8.485051155090332,-0.8259995579719543,-1.0845733880996704
139707,2.0083916567278317,8.556877136230469,1.1204863786697388,-1.941697597503662
139746,,,-1.1109095811843872,
139747,1.8657868051570023,8.303091049194336,,-1.3886369466781616
139786,,,-1.800439715385437,
