relative_time,LinearAccelerometerSensor,AccX,AccY,AccZ
0,15.129642499190796,20.35550308227539,,
19,,,4.072536945343018,-0.5746083855628967
20,4.971920129749806,13.958195686340332,,
39,,,4.4939165115356445,-1.3886369466781616
40,4.224301902385766,5.724536418914795,,
59,8.016581517307287,,1.7501614093780518,-3.098097085952759
60,,1.7046716213226318,,
79,6.348350322630885,,-3.0885202884674072,-2.5761611461639404
80,,7.2783732414245605,,
99,9.07737952108022,10.271124839782715,-6.461950302124023,-3.181894063949585
119,1.4543046982334737,8.640673637390137,0.9600749015808105,-1.6711528301239014
138,,,,-2.013523578643799
139,4.869813948255621,8.130708694458008,6.517016887664795,
158,,,,-1.4748282432556152
159,7.720520063681652,5.726930618286133,8.62391471862793,
178,,,6.361393928527832,-1.2330138683319092
179,7.557613086415898,3.3016040325164795,,
198,,,,-1.2976573705673218
199,5.31326432059224,4.228160381317139,3.047818660736084,
218,,,,-3.064578056335449
219,3.568406144928171,6.143521785736084,1.0558429956436157,
238,,,,-3.0597896575927734
239,3.1380787106739,9.612719535827637,-1.0534487962722778,
257,,,,-0.42616790533065796
258,5.15138986591572,,-3.1292216777801514,
259,,8.83939266204834,,
278,4.71923441642528,,-1.7549498081207275,1.2737152576446533
279,,9.066842079162598,,
299,4.244244436863144,,-0.9457096457481384,0.811634361743927
300,,11.338939666748047,,
317,,,-1.4053963422775269,-0.1388636976480484
318,4.599711798886154,12.346898078918457,,
337,,,,-0.3974374830722809
338,4.475732217055013,12.255918502807617,-1.53707754611969,
357,,,,0.7637503147125244
358,4.809899754738633,11.939884185791016,-1.7621324062347412,
377,3.940263535259402,10.831368446350098,-0.7972691655158997,1.3623007535934448
397,2.8153490682829614,11.595118522644043,1.1420341730117798,0.3447650372982025
417,,,,-3.8498764038085938
418,4.226739847971678,12.988544464111328,2.537853717803955,
437,6.960585117518689,12.306197166442871,4.039018154144287,-7.632715225219727
457,6.294394333406039,8.935160636901855,0.5674257874488831,-8.324639320373535
476,,,-0.28969839215278625,-5.063736438751221
477,3.187980166901241,8.523358345031738,,
496,5.854884672649778,10.931924819946289,3.5913026332855225,-7.292738437652588
516,10.83590088764543,16.8839111328125,6.382941722869873,-7.654263019561768
536,,,6.560112476348877,-4.005499362945557
537,8.994661655307388,15.569493293762207,,
556,3.9284592030336656,11.322179794311523,3.6846764087677,-1.9057846069335938
576,,,,-1.6424223184585571
577,1.705278487520798,9.495404243469238,-0.9696516990661621,
596,4.494897068360005,8.585607528686523,-3.4380736351013184,-0.7254431247711182
616,5.346758792936497,6.876147270202637,-3.670311212539673,-0.7254431247711182
636,5.500937642021245,5.544970989227295,-2.365471363067627,0.009576806798577309
656,5.526427499698501,4.6255974769592285,-1.0295066833496094,-0.3447650372982025
676,6.021103304009872,4.003105163574219,-0.4357447028160095,-0.0694318488240242
696,6.9506721885059655,2.87064790725708,0.40940847992897034,-0.1388636976480484
715,,,,1.0438719987869263
716,6.508199948137841,3.8331170082092285,2.207453966140747,
736,4.759690689166994,7.110779285430908,3.442862033843994,1.6304513216018677
756,3.416544625188338,8.453926086425781,3.464409828186035,0.6871358752250671
775,,,,-0.8523358106613159
776,2.6787994069764505,9.828198432922363,3.9695863723754883,
795,4.366545000395452,11.899182319641113,4.7836151123046875,-3.138798475265503
815,6.267995637971277,,6.390124320983887,-3.0621838569641113
816,,13.132196426391602,,
835,6.102617121365265,13.560758590698242,5.944802761077881,0.12689268589019775
855,6.343658596940038,13.951013565063477,3.7158010005950928,2.9975404739379883
875,,,2.207453966140747,-8.269572257995605
876,8.647717619090672,14.451401710510254,,
894,,,,-11.801020622253418
895,14.630065562374456,,5.985504150390625,
896,,18.768146514892578,,
914,,,,-0.5099649429321289
915,9.280240090651573,18.449718475341797,4.316745758056641,
934,,,,-0.5099649429321289
935,2.1072271644223,8.779537200927734,4.019864559173584,
954,,,1.5897499322891235,-3.6990416049957275
955,8.250162758811186,1.7381904125213623,,
974,,,-2.8107926845550537,-4.424484729766846
975,8.809958666424127,3.5051112174987793,,
994,8.988643262619599,10.031704902648926,-6.40927791595459,-2.9688100814819336
1014,,,,-2.851494312286377
1015,5.201164724049252,11.111490249633789,-2.5546131134033203,
1033,,,,-2.6671407222747803
1034,2.8323410390909407,9.129091262817383,4.359841346740723,
1054,,,7.053318023681641,-1.7597382068634033
1055,5.989845902589447,6.502651691436768,,
1073,,,,-0.8331822156906128
1074,8.735825747418374,3.5625722408294678,8.35336971282959,
1093,,,,-0.8475474119186401
1095,6.866153365767206,3.3303346633911133,5.12119722366333,
1113,,,2.300827741622925,-0.6703764796257019
1114,4.941535941973944,4.599261283874512,,
1133,2.901899794128173,,1.0079588890075684,-1.6687586307525635
1134,,6.722918510437012,,
1153,4.099361621191029,10.105925559997559,-2.011129379272461,-2.408566951751709
1173,,,-2.87064790725708,-0.7493851184844971
1174,4.909206592917866,8.753201484680176,,
1193,3.923177920633761,7.979874134063721,-1.1109095811843872,0.4189853072166443
1213,2.754705910883509,9.272743225097656,0.2537853717803955,0.5291185975074768
1233,2.4496230867026743,,0.8068459630012512,-0.7469909191131592
1234,,11.446678161621094,,
1252,,,,-1.3670891523361206
1253,2.5833347279534626,11.475408554077148,0.2777273952960968,
1272,,,,0.090979665517807
1273,4.443910723004917,12.205639839172363,-1.2473790645599365,
1292,,,,1.4939818382263184
1293,4.857813740727367,12.09550666809082,-1.113303780555725,
1312,,,0.7852981686592102,1.4748282432556152
1313,3.7350596035819255,11.72201156616211,,
1332,,,,-0.727837324142456
1333,3.274791064404404,12.708422660827637,2.0805611610412598,
1352,,,,-6.232107162475586
1353,6.347325111555051,13.807361602783203,2.6001031398773193,
1372,6.308126312984419,11.887211799621582,0.950498104095459,-7.654263019561768
1392,4.785629759735454,7.654263019561768,-1.7764976024627686,-5.080495834350586
1412,,,,-5.552153587341309
1413,3.4166707914994316,9.818621635437012,0.48602294921875,
1432,6.043839828943987,12.471396446228027,2.5474305152893066,-7.405265808105469
1451,,,,-4.570530891418457
1452,8.438330489365411,16.28536033630371,5.123591423034668,
1472,6.110150456300795,13.867216110229492,4.797980308532715,-2.9975404739379883
1492,2.2226184915509846,11.125855445861816,2.1930887699127197,-2.322375535964966
1511,,,,-2.027888774871826
1512,1.5512705302512915,8.9064302444458,-0.5530605912208557,
1531,,,,-1.5849615335464478
1532,4.328772320867454,6.888118267059326,-2.410961151123047,
1551,,,,-1.2617442607879639
1552,5.5285548308817924,5.281609058380127,-2.365471363067627,
1571,,,,-0.6775590777397156
1572,5.563943911249841,4.570530891418457,-0.9481038451194763,
1591,,,-0.24660277366638184,-1.1061211824417114
1592,5.528837205758397,4.273650169372559,,
1611,5.933487670834196,,0.08619125932455063,-1.0773907899856567
1612,,3.780444383621216,,
1631,6.01028387583036,3.5865142345428467,0.8643068075180054,-1.0414776802062988
1650,,,,-0.06464344263076782
1651,5.017009983587339,4.9368438720703125,2.4827871322631836,
1670,,,,0.6320692300796509
1671,4.355339780531691,7.1490864753723145,4.194641590118408,
1691,3.9890273514367203,8.465897560119629,5.0900726318359375,-0.1412578970193863
1710,,,5.540182590484619,-0.5315127968788147
1711,4.23540549038327,10.797849655151367,,
1730,,,,-3.5194764137268066
1731,4.751909173463512,12.679692268371582,4.843470096588135,
1751,3.821524024250001,12.480973243713379,3.670311212539673,-3.136404275894165
1770,,,2.7533318996429443,0.6416460275650024
1771,3.8245514051882914,12.607866287231445,,
1790,7.554932141608331,,1.7286136150360107,5.049371242523193
1791,,13.713987350463867,,
1810,4.862738423520839,12.042834281921387,-0.12689268589019775,2.497152328491211
1829,,,,-9.555258750915527
1830,8.93569479898051,12.619836807250977,2.5330653190612793,
1849,,,,-11.975796699523926
1850,14.66182825447331,17.958906173706055,7.357381820678711,
1869,,,4.711789131164551,-1.5514427423477173
1870,7.394457478666612,16.395492553710938,,
1889,,,,-0.09816227108240128
1890,3.485750893215231,7.424419403076172,5.008669853210449,
1909,7.264003515301496,2.233790159225464,3.8522706031799316,-2.1116859912872314
1929,6.295230016407078,,-1.1420341730117798,-4.010287761688232
1930,,5.564124584197998,,
1949,,,-5.899312973022461,-2.999934673309326
1950,8.681527918630056,10.0580415725708,,
1969,3.2879387392337622,8.494627952575684,-0.7637503147125244,-2.054224967956543
1989,,,5.185841083526611,-1.6950948238372803
1990,3.579056531094612,7.694964408874512,,
2009,6.824321883611776,6.100425720214844,8.020575523376465,-1.8698714971542358
2028,,,,-1.3766659498214722
2029,7.640129463337171,3.663128614425659,7.177816867828369,
2048,,,,-1.3527239561080933
2049,5.829656404868826,3.818751811981201,3.931279182434082,
2068,,,1.6903064250946045,-1.7310078144073486
2069,3.896914381426283,5.480327606201172,,
2088,,,,-2.851494312286377
2089,1.9549737953907906,8.769960403442383,0.38067805767059326,
2108,,,,-2.027888774871826
2109,3.915696828903355,,-1.9057846069335938,
2110,,8.801085472106934,,
2128,,,,0.004788403399288654
2129,4.502984223028301,8.367734909057617,-1.9967641830444336,
2148,,,,0.608127236366272
2149,4.061383372682557,9.775525093078613,-1.2641384601593018,
2187,,,,-0.5171475410461426
2188,4.335669156955385,13.010091781616211,0.040701430290937424,
2227,5.389026703443285,11.461043357849121,-1.8315643072128296,1.644816517829895
2383,,,,-0.3256114423274994
2384,3.7049263866282787,12.871228218078613,1.7501614093780518,
2386,12.5013542967524,,5.75326681137085,-6.868964672088623
2387,,20.214244842529297,,
2426,2.30117240132585,,3.023876667022705,-3.490746021270752
2427,,9.986215591430664,,
2465,,,-0.7733271718025208,-0.07661445438861847
2466,4.640562731392525,5.906495571136475,,
2505,7.119048996323915,,-2.1811177730560303,-0.33997663855552673
2506,,3.8331170082092285,,
2545,,,-0.7374141216278076,-0.6320692300796509
2546,6.325542309094959,3.8953661918640137,,
2585,4.549368787306107,5.264849662780762,1.403002142906189,0.3758896589279175
2625,3.884667427429086,9.787496566772461,5.12119722366333,1.599326729774475
2665,4.580054595821758,11.532869338989258,4.876988887786865,-4.223371982574463
2705,9.44183936997853,,2.96162748336792,5.468356609344482
2706,,16.704345703125,,
2745,5.862649801003722,11.884817123413086,1.1420341730117798,-5.810727596282959
2785,13.864051692102459,22.42648696899414,5.657498836517334,-4.378994941711426
2824,,,,0.011971008032560349
2825,6.2007123353350435,3.332728862762451,5.367800235748291,
2864,,,,-3.2585084438323975
2865,10.020728181431368,,-6.411672115325928,
2866,,8.461109161376953,,
2904,,,,-1.3311761617660522
2905,,,5.494692802429199,
2944,9.928370474715532,2.1523873805999756,9.545681953430176,-0.7182605266571045
2984,,,,-4.0078935623168945
2985,4.132044008624423,6.234501361846924,3.24414324760437,
3023,,,,-0.8882488012313843
3024,6.056274993498479,10.146626472473145,-3.4572272300720215,
3063,,,,1.8914192914962769
3064,6.52167652597648,10.927136421203613,-3.450044631958008,
3103,,,-0.8619126081466675,0.40701428055763245
3104,3.9131165235031875,11.836933135986328,,
3144,,,,1.4724340438842773
3145,4.280153899946422,11.444284439086914,-1.3742717504501343,
3183,6.406599528383981,13.498509407043457,3.550601005554199,-5.834669589996338
3222,,,,-6.648698329925537
3223,5.828081800694457,7.467514991760254,-0.730231523513794,
3262,,,,-8.339004516601562
3263,9.954399662050742,15.559916496276855,5.518634796142578,
3283,,,,-5.140350818634033
3284,11.81418690418563,17.590200424194336,8.465897560119629,
3301,,,,-2.806004285812378
3302,7.287435237537867,13.12501335144043,6.665457725524902,
3322,2.2361592458068413,11.532869338989258,0.7948749661445618,-2.978386878967285
3342,3.8560545687870365,8.487444877624512,-2.978386878967285,-1.4269442558288574
3361,,,,-0.44532153010368347
3362,6.189145880765652,7.319074630737305,-4.934449672698975,
3381,,,,-0.6703764796257019
3382,5.3583125626718635,6.18182897567749,-3.3925838470458984,
3401,,,,-0.181959331035614
3402,5.1510319981293025,4.999093055725098,-1.1875240802764893,
3421,,,,-0.5602431893348694
3422,5.431331072905678,4.343081951141357,0.11013327538967133,
3441,,,,-0.4381389021873474
3442,6.308911502736842,3.4524388313293457,0.4908113479614258,
3461,6.584862382590562,3.337517261505127,1.7166426181793213,0.15322890877723694
3481,5.878778095052503,4.857835292816162,3.0813376903533936,1.2641384601593018
3501,4.833513431920679,5.96874475479126,2.786850690841675,1.314416766166687
3521,2.625790976381774,7.359776020050049,2.1978771686553955,-0.3423708379268646
3541,,,,-1.2976573705673218
3542,2.7767784949135668,,3.5721490383148193,
3543,,11.33654499053955,,
3560,,,,-4.752490520477295
3561,6.405520216149657,13.189657211303711,5.453991413116455,
3581,,,5.523423194885254,-2.999934673309326
3582,5.387519627511013,12.674903869628906,,
3601,6.998841326050089,14.082694053649902,4.443638324737549,3.533841609954834
3620,5.996523803796012,,1.0845733880996704,4.577713489532471
3621,,12.30859088897705,,
3640,,,,-2.6144683361053467
3641,3.353098555120192,11.465831756591797,-0.4381389021873474,
3660,13.83520795383924,14.2431058883667,4.079719543457031,-13.527239799499512
3680,,,,-5.655104637145996
3681,13.517051947794497,21.62442970275879,5.616796970367432,
3700,3.1842043425677082,12.140996932983398,3.912125587463379,-0.9792284965515137
3720,,,5.224148273468018,-0.1364694982767105
3721,5.73134805476882,4.481945514678955,,
3740,,,-1.7070658206939697,-4.039018154144287
3741,8.635073763516278,2.8443117141723633,,
3760,7.742655319414888,9.035717010498047,-5.035006046295166,-2.4420857429504395
3779,,,,-2.942473888397217
3780,7.25150230890703,9.23443603515625,-4.759673118591309,
3799,2.767961021970275,7.42681360244751,3.4093432426452637,-1.2425906658172607
3818,,,,-1.9393033981323242
3819,7.088998959655728,6.900089263916016,8.216899871826172,
3838,,,,-1.4437036514282227
3839,8.642142688536417,4.661510944366455,8.9064302444458,
3858,,,,-1.7717092037200928
3859,6.649357195311427,3.88818359375,5.418078422546387,
3878,3.809813005959854,5.858611583709717,2.652775526046753,-2.3726539611816406
3898,2.4373656015757317,,1.403002142906189,-3.4189200401306152
3899,,8.054094314575195,,
3918,4.0089530883388935,8.367734909057617,-1.9584569931030273,-2.2649147510528564
3938,,,-3.28963303565979,-0.014365210197865963
3939,5.332957473067444,8.53293514251709,,
3972,,,-1.8052281141281128,0.7182605266571045
3973,4.138832020777821,9.162610054016113,,
3978,3.3990803428462857,10.711658477783203,-0.42616790533065796,0.8403648138046265
3998,3.927599130177132,12.36365795135498,-0.23702596127986908,0.31124621629714966
4018,3.846236998319424,11.87763500213623,-1.0223240852355957,-0.05985504388809204
4038,4.454488980390008,10.84094524383545,-2.322375535964966,0.35673606395721436
4058,3.572201552528184,9.96945571899414,-1.3934253454208374,0.7493851184844971
4078,3.0000804254559745,11.999738693237305,0.7110779285430908,0.26815059781074524
4098,3.6443221675188027,12.519280433654785,3.2561142444610596,-2.4133553504943848
4119,,,,-6.648698329925537
4120,5.884469375218199,10.943896293640137,4.101267337799072,
4138,8.21312309235505,8.7484130859375,1.316810965538025,-10.062829971313477
4165,,,-0.7182605266571045,-5.863399982452393
4166,4.48763377380746,7.82185697555542,,
4177,,,,-5.743690013885498
4178,3.480851380351118,9.461885452270508,1.3455413579940796,
4197,9.768145768411204,16.196775436401367,5.609614372253418,-7.285555839538574
4217,12.737577482667303,19.723434448242188,7.565677165985107,-3.581725835800171
4237,5.751570114051942,13.227964401245117,4.446032524108887,-3.2178070545196533
4257,0.5864638698129084,,0.10055647045373917,-1.9560627937316895
4258,,9.064447402954102,,
4277,4.86019998397981,7.759607791900635,-3.890577793121338,-0.8307880163192749
4296,,,,-0.6200982332229614
4297,6.086136820789291,7.036558628082275,-4.843470096588135,
4317,5.962728768684392,5.2480902671813965,-3.201047658920288,-0.29209262132644653
4337,5.578443331143491,4.580107688903809,-1.4101848602294922,-0.5027823448181152
4357,4.9390109683724255,,-0.06703764945268631,-0.45250412821769714
4358,,4.920084476470947,,
4375,,,,-0.5602431893348694
4376,4.549646116475022,5.252878665924072,1.1468225717544556,
4395,,,,0.43335050344467163
4396,4.781000267936796,5.748478412628174,2.6216509342193604,
4415,,,,0.5746083855628967
4416,4.531009220434678,6.66785192489624,3.536235809326172,
4435,,,,1.1683704853057861
4436,4.079543294589683,7.419631004333496,3.0190882682800293,
4455,,,,-0.4165911078453064
4456,2.7085760643587684,7.592013359069824,2.58813214302063,
4476,,,,-1.6903064250946045
4477,2.005217065833427,9.129091262817383,3.2154128551483154,
4496,4.258119120625276,11.262324333190918,4.290409564971924,-4.034229755401611
4516,4.139683800015567,12.021286964416504,4.699818134307861,-1.1037269830703735
4536,6.948407096273009,14.635754585266113,4.759673118591309,2.1787235736846924
4556,,,0.395043283700943,3.794809579849243
4557,6.220849377695981,13.295001983642578,,
4575,,,,0.07661445438861847
4576,3.410413245166576,11.27190113067627,-1.2186486721038818,
4596,8.736659752606398,10.867281913757324,2.449268341064453,-9.593565940856934
4616,11.81448654344133,18.52872657775879,6.62236213684082,-7.082048416137695
4637,6.606535606020984,15.40668773651123,3.8067808151245117,-3.687070608139038
4655,,,,-5.061342239379883
4656,4.517902156491426,7.089231014251709,3.509899616241455,
4675,7.24649805138931,,-0.16759411990642548,-4.436455726623535
4676,,3.4739866256713867,,
4695,6.011975734638882,9.528923034667969,-3.066972494125366,-3.5745432376861572
4715,6.302636021951078,10.295066833496094,-3.9001545906066895,-2.5713725090026855
4735,2.364949896767623,7.194576263427734,2.0231003761291504,-1.3311761617660522
4755,5.316439794564912,5.638344764709473,5.363011837005615,-1.235408067703247
4774,,,,-2.185906171798706
4775,6.852298222952595,4.965574264526367,6.75883150100708,
4794,,,4.608838081359863,-2.583343744277954
4795,4.8286126640474505,5.765237808227539,,
4814,,,3.28963303565979,-2.3918075561523438
4815,2.674963164744378,7.3693528175354,,
4834,,,1.7980455160140991,-3.1292216777801514
4835,1.5044806634351904,8.597578048706055,,
4854,,,,-2.535459518432617
4855,2.4755834334923232,8.276755332946777,-0.304063618183136,
4875,4.225457630541336,7.465120792388916,-1.8052281141281128,-0.7086837291717529
4894,3.8211600332803344,,-1.3670891523361206,0.09576806426048279
4895,,8.238448143005371,,
4913,,,,0.24660277366638184
4914,2.9451237220876343,10.256759643554688,-0.1843535304069519,
4934,,,0.304063618183136,0.1604115068912506
4935,3.5577970548821396,11.96861457824707,,
4953,,,,-0.05506663769483566
4954,3.3546096003833124,11.480196952819824,-0.2777273952960968,
4973,,,,0.14365209639072418
4974,2.929688476562337,10.623072624206543,-0.2968810200691223,
4993,,,-0.7757213711738586,0.272938996553421
4994,3.0521276338419594,10.065223693847656,,
5013,,,,0.7182605266571045
5014,3.3606779188913545,10.304644584655762,-0.8619126081466675,
5033,,,-0.35434186458587646,0.7541735172271729
5034,3.22518145028587,10.884040832519531,,
5053,3.083527447200553,10.747570991516113,-0.7589619159698486,0.26815059781074524
5073,2.434662952948109,,0.1628057211637497,-3.7852327823638916
5074,,9.72285270690918,,
5093,,,,-7.673416614532471
5095,5.94967783849142,8.588001251220703,1.036689281463623,
5113,7.281078942381105,7.671022415161133,0.9145850539207458,-8.99740982055664
5133,,,,-5.726930618286133
5134,3.5660230382666125,8.808267593383789,1.1683704853057861,
5153,6.403040533220788,13.292608261108398,4.891354084014893,-5.317522048950195
5173,17.628363971412483,24.760833740234375,7.510610580444336,-7.503427982330322
5192,,,,-3.272873640060425
5193,9.024514191039723,16.8216609954834,5.25527286529541,
5212,2.9240535019808185,,2.9664158821105957,-2.829946517944336
5213,,10.261548042297363,,
5232,1.6995144992264863,8.183381080627441,0.0071826050989329815,-1.2018892765045166
5252,4.596649085535218,6.794744491577148,-3.0597896575927734,-0.8379706144332886
5272,5.208914986238718,,-3.1004912853240967,-0.7661445140838623
5273,,6.004657745361328,,
5292,5.003779127544598,5.535394191741943,-1.98958158493042,-0.4596867263317108
5312,3.3072375836293215,6.787561893463135,-0.6991068720817566,-0.7565677165985107
5331,,,,-0.8140285611152649
5332,2.2762720848323497,7.5632829666137695,0.6177040338516235,
5352,3.1964595759685093,6.708553314208984,1.5658079385757446,-0.5626373887062073
5372,4.2712157783778455,6.01423454284668,2.1499931812286377,0.363918662071228
5391,,,2.0374655723571777,0.5506663918495178
5392,4.186115092817265,6.121973514556885,,
5412,3.7324803865278957,6.847416877746582,1.86508309841156,0.9145850539207458
5431,3.4506653185649676,,2.0805611610412598,0.8571242094039917
5432,,7.094019412994385,,
5451,,,2.5067291259765625,0.5985504388809204
5452,3.0248855947503412,7.46033239364624,,
5471,1.5135887073926273,8.470685958862305,2.432508945465088,-0.811634361743927
5491,0.7393880953560175,9.593565940856934,2.252943754196167,-1.039083480834961
5512,3.1814318471920213,12.047622680664062,3.5745432376861572,-0.6919242739677429
5531,5.189353703589871,13.769054412841797,4.505887508392334,0.06464344263076782
5551,5.763674853332846,13.4290771484375,4.551377296447754,2.164358377456665
5571,,,2.779668092727661,3.7636849880218506
5572,5.147748377154053,11.310209274291992,,
5590,,,,3.117250680923462
5591,4.050509790431067,9.531316757202148,0.9026140570640564,
5610,,,,-5.329493045806885
5611,4.66367991554033,8.786720275878906,2.4444799423217773,
5630,,,,-13.819332122802734
5631,13.768271773072593,10.287884712219238,6.689399719238281,
5651,,,,-10.129867553710938
5652,13.38598181970018,19.07221031188965,4.730942726135254,
5670,2.752342786742753,11.027692794799805,2.499546527862549,-3.711012601852417
5689,,,,-2.937685489654541
5690,1.8774989958860757,,1.7262194156646729,
5691,,8.552088737487793,,
5710,3.5160581872875203,7.338228225708008,0.5602431893348694,-3.2321722507476807
5729,,,,-1.0223240852355957
5730,5.542127183790848,9.035717010498047,-3.1292216777801514,
5749,,,,-0.8379706144332886
5750,4.642829962011569,7.5417351722717285,-2.1499931812286377,
5769,,,2.2026655673980713,-1.1228805780410767
5770,4.968694914506463,4.623203277587891,,
5790,5.064515642691644,10.122684478759766,6.380547523498535,-3.043030261993408
5809,4.843589140159081,,5.578489780426025,-2.542642116546631
5810,,6.782773494720459,,
5829,,,4.436455726623535,-1.843535304069519
5830,4.126447481446804,6.279991149902344,,
5848,,,,-2.298433542251587
5849,3.372405291019959,6.119579315185547,2.4684219360351562,
5868,,,,-1.7717092037200928
5869,3.207032290794213,6.48828649520874,0.5578489899635315,
5889,3.6143466018123145,7.802703380584717,-1.4652514457702637,-1.237802267074585
5909,3.5018018444126358,9.351752281188965,-1.8195933103561401,-1.0199298858642578
5928,,,,-0.5123591423034668
5929,2.320900582435578,10.390835762023926,0.004788403399288654,
5948,,,,-0.22266076505184174
5949,3.1143939280676376,11.853693008422852,0.8595184087753296,
5969,3.276077116676905,11.949460983276367,1.2114660739898682,0.0454898327589035
5987,,,,0.2513911724090576
5988,3.2266335837452074,10.884040832519531,-0.3663128614425659,
6007,,,-1.5610195398330688,0.5315127968788147
6008,3.8596936298995304,10.225635528564453,,
6027,,,,1.0582371950149536
6028,4.103938114108642,10.407594680786133,-1.6519991159439087,
6047,2.684026025330395,11.513715744018555,0.6727706789970398,0.21547815203666687
6067,2.6542766646064178,11.911153793334961,1.2210428714752197,-0.35673606395721436
6087,2.9998591707871327,10.390835762023926,0.4189853072166443,-4.534617900848389
6108,5.487215268475248,9.327810287475586,1.0654197931289673,-7.400477409362793
6128,6.4922597722737185,8.698134422302246,-1.7142484188079834,-7.845798969268799
6147,,,-1.7812861204147339,-5.726930618286133
6148,4.306806260987106,9.873687744140625,,
6167,,,3.4093432426452637,-5.935225963592529
6168,6.010742108169171,13.508086204528809,,
6187,,,6.042964935302734,-5.729324817657471
6188,12.062813710298895,19.589357376098633,,
6207,6.327508891689846,13.718775749206543,4.903325080871582,-2.8107926845550537
6227,1.5863634862201657,,1.9728221893310547,-2.363077163696289
6228,,9.461885452270508,,
6247,,,-0.6919242739677429,-0.9074024558067322
6248,2.3471193635914216,7.9631147384643555,,
6267,4.125013640410094,,-2.698265314102173,-1.0606313943862915
6268,,7.347805023193359,,
6287,4.388067946666896,6.710947513580322,-2.4372973442077637,-0.9002198576927185
6307,,,,-1.1492167711257935
6308,4.783959711689814,5.815515995025635,-2.054224967956543,
6327,3.9332795306475408,5.987898349761963,-0.6440402865409851,-1.4508862495422363
6347,3.5556743886745825,6.102819919586182,0.40940847992897034,-1.4484920501708984
6366,,,,-1.2761094570159912
6367,4.044923053853643,5.65031623840332,1.742978811264038,
6386,,,3.3710360527038574,-0.31842881441116333
6387,4.723537416502346,5.66228723526001,,
6407,4.644732061076231,5.978321552276611,3.6966474056243896,-0.023942016065120697
6426,3.72862228312939,6.799532890319824,3.2393548488616943,0.06703764945268631
6446,,,3.023876667022705,0.17477671802043915
6447,2.525856394052612,8.463502883911133,,
6466,,,,-1.2282254695892334
6467,1.7655262877290594,10.307038307189941,3.1938650608062744,
6486,,,3.1483752727508545,-1.359906554222107
6487,1.9104151014060204,10.721235275268555,,
6506,2.3615813391684797,11.719616889953613,2.628833532333374,-0.9289502501487732
6525,,,,1.721431016921997
6526,4.09847074692243,12.54801082611084,2.360682964324951,
6545,,,,3.485957622528076
6546,5.364250612280121,12.509703636169434,1.845929503440857,
6565,,,,-2.6623523235321045
6566,3.1538596591338237,12.277466773986816,2.2002713680267334,
6585,,,,-12.212822914123535
6586,12.279629743629284,13.108254432678223,5.875370979309082,
6606,,,,-4.6950297355651855
6607,12.41834904753471,,5.250484466552734,
6608,,20.994754791259766,,
6624,,,,-2.1380221843719482
6625,1.9253737074514488,10.177751541137695,3.732560396194458,
6644,5.5196376825371765,4.034229755401611,2.8347349166870117,-2.33913516998291
6664,9.005159382699038,2.5977089405059814,-2.4827871322631836,-4.168305397033691
6684,8.235733643992207,9.224859237670898,-5.822698593139648,-2.2242133617401123
6723,,,,-1.4413094520568848
6724,2.066319599029456,8.508993148803711,3.689464807510376,
6877,5.3511593854788915,6.754043102264404,6.203376770019531,-2.6647465229034424
6883,3.0705966963532143,7.740454196929932,-0.545877993106842,-0.6200982332229614
6923,2.386438431331436,,1.4317326545715332,-1.01753568649292
6924,,11.547234535217285,,
6962,4.3221985492423025,,-1.039083480834961,0.4620809257030487
6963,,11.66455078125,,
7002,,,-1.7381904125213623,1.4915876388549805
7003,4.881382407762726,11.02051067352295,,
7042,2.5511047251643952,11.954249382019043,1.173158884048462,-1.3096283674240112
7082,7.114125837935978,10.769119262695312,-0.42856210470199585,-8.992621421813965
7121,,,,-4.891354084014893
7122,2.397402263474997,9.701305389404297,1.338358759880066,
7162,,,,-3.885789394378662
7163,7.855061555131959,15.715539932250977,5.257667064666748,
7202,1.4106572072379588,10.41956615447998,1.8363527059555054,-2.1571757793426514
7242,,,,-1.7573440074920654
7243,3.8170232986566632,7.043741226196289,-1.824381709098816,
7281,,,,-1.113303780555725
7282,4.567405884957493,5.683835029602051,-1.0845733880996704,
7321,,,,-1.1109095811843872
7322,,,-0.11252748221158981,
7323,4.59571018048226,5.238513469696045,,
7361,,,,0.586579442024231
7362,4.6072287525099185,5.944802761077881,3.0813376903533936,
7401,3.1290444713832435,8.118738174438477,4.043806552886963,-0.2322375625371933
7440,,,,-2.671929121017456
7441,3.483499870395562,11.889605522155762,4.20421838760376,
7481,,,2.049436569213867,1.113303780555725
7482,3.192124247472788,11.578359603881836,,
7520,,,,2.2242133617401123
7521,4.478636575721743,12.536040306091309,2.1739351749420166,
7560,13.62116264411169,,7.216124057769775,-9.306262016296387
7561,,19.151220321655273,,
7599,,,,-1.8100165128707886
7600,2.205327225190406,7.915230751037598,3.9647979736328125,
7640,,,,-3.1268274784088135
7641,7.721344175970208,8.164227485656738,-4.965574264526367,
7679,,,,-1.7310078144073486
7680,2.864999710801994,6.71334171295166,1.5634137392044067,
7719,,,8.827422142028809,-1.778891921043396
7720,7.652311098146903,6.268020153045654,,
7759,4.311710451245638,5.315127849578857,3.2992098331451416,-1.4891934394836426
7778,,,,-2.0398597717285156
7779,2.4665767906758016,6.92881965637207,1.5514427423477173,
7799,2.3550765943118885,,-0.3998316824436188,-2.7557260990142822
7800,,9.32302188873291,,
7819,4.0243118076899425,8.80587387084961,-2.2242133617401123,-1.1803414821624756
7839,4.388886783025266,8.073247909545898,-2.0374655723571777,0.3016694188117981
7858,,,,0.49559974670410156
7859,2.870530676609544,10.005369186401367,-0.17477671802043915,
7878,,,,-0.20111294090747833
7879,3.1386765846164884,12.042834281921387,0.45010992884635925,
7899,3.56892231059257,12.538434028625488,-0.15801730751991272,-0.4812345504760742
7919,,,-1.742978811264038,0.47644615173339844
7920,4.368940243924202,12.112266540527344,,
7939,4.533251721451606,11.310209274291992,-2.5234885215759277,0.9361328482627869
7958,2.7630358284205694,,0.3471592366695404,0.4812345504760742
7959,,11.57357120513916,,
7978,,,,-2.030282974243164
7979,3.4123590964267385,12.825738906860352,1.845929503440857,
7998,6.158175559425302,12.634202003479004,3.24414324760437,-6.428431510925293
8019,7.653261185194115,9.421183586120605,0.586579442024231,-9.605537414550781
8037,,,,-5.714959621429443
8038,3.9540071370162186,8.226476669311523,-0.7805097699165344,
8057,,,,-5.360617637634277
8058,3.6904652198358896,9.502586364746094,2.3774423599243164,
8077,,,,-6.3063273429870605
8078,7.700130847958598,,5.43723201751709,
8079,,13.390769958496094,,
8098,11.558439954409398,17.978059768676758,7.33583402633667,-4.201824188232422
8117,,,,-2.406172752380371
8118,6.473017809662583,13.263877868652344,4.999093055725098,
8137,,,,-2.403778553009033
8138,0.7468964418022866,9.983820915222168,0.5602431893348694,
8157,,,,-1.2976573705673218
8158,2.8524185358930496,7.910442352294922,-1.9800047874450684,
8177,,,-3.375824451446533,-0.47644615173339844
8178,4.927310908776515,6.670246124267578,,
8197,,,-2.255337953567505,-0.42377370595932007
8198,5.659707714392459,4.821922302246094,,
8217,5.611873824568401,4.467580318450928,-1.1300631761550903,-0.2992752194404602
8236,,,,-0.6655880808830261
8237,5.095920591732773,4.776432514190674,-0.545877993106842,
8256,,,,-0.4644751250743866
8257,5.2237628914153005,4.599261283874512,0.13407529890537262,
8276,,,,0.37828385829925537
8277,5.179537257436409,5.080495834350586,1.86508309841156,
8296,,,,0.7996633648872375
8297,5.182328185395304,6.13633918762207,3.6104562282562256,
8316,,,,2.1045033931732178
8317,5.446336253185592,,4.223371982574463,
8318,,7.718906402587891,,
8336,,,3.160346269607544,-0.043095629662275314
8337,3.3425207998217767,7.577648162841797,,
8357,,,2.808398485183716,-1.4772224426269531
8358,1.642926663355349,9.732429504394531,,
8376,4.649255196594035,,3.9815573692321777,-3.773261785507202
8377,,12.567164421081543,,
8396,5.414524691671352,13.273454666137695,5.200206279754639,-0.8403648138046265
8416,7.3228358069378485,14.358027458190918,4.668693542480469,3.2632968425750732
8435,,,,4.51067590713501
8436,6.821747269528986,13.400346755981445,0.22505496442317963,
8456,,,-1.048660397529602,0.6631938815116882
8457,3.2553493784547403,10.931924819946289,,
8475,,,,-12.176909446716309
8476,11.625502052540906,10.556035041809082,4.501099109649658,
8495,16.052726651849035,,9.057265281677246,-9.198522567749023
8496,,21.284452438354492,,
8516,4.405950008487945,,3.2321722507476807,-2.7724854946136475
8517,,13.46259593963623,,
8536,,,,-2.2170307636260986
8537,3.9126422307788657,6.155492782592773,4.240131378173828,
8555,6.959812060482404,3.8953661918640137,-0.028730420395731926,-4.422090530395508
8575,6.000086783735175,9.35654067993164,-3.332728862762451,-2.674323320388794
8595,7.488276155775523,9.162610054016113,-5.116408824920654,-3.0119056701660156
8615,3.705306686084089,,2.540247917175293,-1.2497732639312744
8616,,5.949591159820557,,
8635,,,,-1.3886369466781616
8636,7.057491721007531,4.7836151123046875,6.8809356689453125,
8655,8.088694050064378,4.644751071929932,8.159439086914062,-1.580173134803772
8675,6.252386934340275,4.343081951141357,5.360617637634277,-1.5682021379470825
8694,,,,-2.164358377456665
8695,3.2708550875642923,6.430825710296631,3.1268274784088135,
8714,,,,-3.442862033843994
8715,1.576467493406294,8.954314231872559,1.5729905366897583,
8733,3.154424762790586,9.481039047241211,-1.235408067703247,-2.760514497756958
8753,5.49516135564598,8.700529098510742,-3.227383852005005,0.3256114423274994
8773,,,,1.460463047027588
8774,5.468120778533774,9.10993766784668,-2.7126305103302,
8793,,,,1.3623007535934448
8794,4.241855221937325,10.295066833496094,-1.1180921792984009,
8813,,,,0.20111294090747833
8814,4.139871780695111,12.251130104064941,-0.7613561153411865,
8833,,,,0.14844051003456116
8834,4.494645641985749,12.227188110351562,-1.4460978507995605,
8854,4.519573030138561,11.480196952819824,-1.8579005002975464,0.6536170840263367
8873,,,,0.43335050344467163
8874,3.0926237271844657,11.092336654663086,-0.3423708379268646,
8893,,,1.6879122257232666,-0.7661445140838623
8894,3.4780310111700623,12.916718482971191,,
8913,5.845024745030558,13.026851654052734,4.2544965744018555,-5.458779811859131
8933,6.581481512187334,9.646238327026367,2.7916390895843506,-8.358158111572266
8953,5.718673288633379,7.620744228363037,-0.9074024558067322,-7.117961883544922
8972,,,,-5.063736438751221
8973,2.992226861839256,8.616731643676758,-0.13168109953403473,
8992,,,,-7.058106422424316
8993,6.5499997204496605,12.179304122924805,4.355052947998047,
9012,,,,-5.540182590484619
9013,12.851878914227933,19.515138626098633,7.570465564727783,
9032,,,,-3.9384617805480957
9033,8.449723043925344,15.169661521911621,6.1985883712768555,
9052,,,,-2.7222073078155518
9053,2.628456746140786,11.860875129699707,1.400607943534851,
9072,2.64324893035766,9.607931137084961,-2.121262788772583,-1.556231141090393
9092,,,-4.417302131652832,-1.0630255937576294
9093,5.338581284786937,7.862558364868164,,
9112,5.706951707394005,6.3518171310424805,-3.8546648025512695,-0.40940847992897034
9132,5.672858539142938,4.786009311676025,-1.8962076902389526,-0.26575639843940735
9151,,,,-0.5530605912208557
9152,5.4946708870821945,4.335899353027344,-0.17717093229293823,
9172,5.470659718176154,4.338293552398682,0.3926490843296051,-0.38546648621559143
9192,5.362284146034914,4.520252704620361,1.5131354331970215,-0.20111294090747833
9211,4.997359532285212,,2.875436305999756,0.6631938815116882
9212,,5.652710437774658,,
9231,,,,1.113303780555725
9232,4.8618471781205175,6.311115741729736,3.3063924312591553,
9252,3.642306745713574,6.794744491577148,3.1220390796661377,-0.26815059781074524
9271,1.9314155408902578,,3.047818660736084,-0.9768342971801758
9272,,8.882488250732422,,
9292,4.529505742542835,12.27267837524414,4.189853191375732,-3.9624037742614746
9311,,,,-3.3446998596191406
9312,5.565470727306353,13.038822174072266,5.413290023803711,
9331,,,5.963956356048584,1.2689268589019775
9332,7.253016403417422,14.659696578979492,,
9351,,,,4.2951979637146
9352,7.066717728244393,13.955801963806152,2.738966703414917,
9371,,,,-0.6009446382522583
9372,3.2493333866472622,12.265495300292969,-0.12928688526153564,
9391,10.599338554042093,13.994109153747559,3.3063924312591553,-10.57040023803711
9411,11.842692224779777,20.025102615356445,5.525817394256592,-5.284003257751465
9431,3.881973759345819,12.868834495544434,3.7852327823638916,-0.3758896589279175
9450,,,,-2.5953147411346436
9451,4.392765053061837,5.518634796142578,3.7158010005950928,
9471,8.070065283150837,2.293645143508911,0.16519992053508759,-3.7445313930511475
9490,,,,-3.0119056701660156
9491,6.984939449979008,8.29590892791748,-3.9671921730041504,
9510,8.682680398575581,,-5.547365188598633,-4.378994941711426
9511,,10.881647109985352,,
9530,,,2.365471363067627,-2.477998733520508
9531,1.555931781881643,8.69095230102539,,
9550,5.189928704214923,7.187393665313721,6.636727333068848,-1.556231141090393
9569,8.06244511548664,4.644751071929932,8.473079681396484,-1.3982137441635132
9589,7.597280678377935,3.2752678394317627,6.4834980964660645,-0.9983820915222168
9609,5.047131794635146,4.570530891418457,3.423708438873291,-1.1324573755264282
9629,2.250721286026559,7.2352776527404785,1.7310078144073486,-2.389413356781006
9649,,,-0.8212111592292786,-2.5665841102600098
9650,3.0861178188516227,10.335768699645996,,
9669,,,-2.734178304672241,-0.5363011956214905
9670,4.88998828192245,9.095572471618652,,
9689,5.363568947696063,8.195352554321289,-2.6001031398773193,0.9145850539207458
9709,4.174901657316805,9.074024200439453,-1.1348515748977661,1.2330138683319092
9729,2.8843510355010697,10.927136421203613,0.1149216815829277,0.15322890877723694
9748,,,,-1.0223240852355957
9749,1.9004685326158743,10.69489860534668,0.4836287498474121,
9769,3.7079347689177755,11.5065336227417,-1.1204863786697388,-0.4189853072166443
9788,,,-1.7190368175506592,0.4429273009300232
9789,4.677136982338928,12.035652160644531,,
9808,,,,0.9002198576927185
9809,4.6139817832451575,12.823344230651855,-0.5099649429321289,
9828,,,,0.16998831927776337
9829,3.7648859208898284,12.844892501831055,1.599326729774475,
9848,2.6988564895462246,,3.1866824626922607,-2.145204782485962
9849,,11.520898818969727,,
9867,,,,-5.8657941818237305
9868,4.690769123707095,11.489773750305176,2.801215887069702,
9887,,,,-8.959102630615234
9888,7.246048738488904,9.02135181427002,-0.6799532771110535,
9907,3.978503519825411,7.886500358581543,-1.0558429956436157,-5.12119722366333
9927,,,,-5.475539207458496
9928,3.099397071533631,9.066842079162598,1.0821791887283325,
9947,,,,-6.45476770401001
9948,6.404495222225845,13.232752799987793,3.993528366088867,
9967,,,,-3.6727054119110107
9968,10.786085023165409,18.40183448791504,6.311115741729736,
9987,5.9133348710245555,,5.0254292488098145,-2.1164743900299072
9988,,13.24472427368164,,
10007,,,,-1.314416766166687
10008,1.2797832932908035,9.923966407775879,1.292868971824646,
10027,,,,-0.9983820915222168
10028,3.1343415065508577,7.893682956695557,-1.6160861253738403,
10047,5.405711064460138,6.48828649520874,-3.4165258407592773,-0.8690952062606812
10067,5.86527177237911,5.250484466552734,-2.779668092727661,-0.49799394607543945
10087,5.335516045878793,4.888959884643555,-1.4293384552001953,-1.0558429956436157
10107,,,,-0.9193734526634216
10108,5.047883207635621,4.824316501617432,-0.40701428055763245,
10127,5.150724467458229,4.501099109649658,0.849941611289978,-0.9792284965515137
10147,5.246643810165881,4.786009311676025,2.671929121017456,-0.23942017555236816
10167,5.095387201542448,,3.5410242080688477,0.9026140570640564
10168,,5.882553577423096,,
10186,,,,0.730231523513794
10187,4.242417471537616,6.643909931182861,3.1723172664642334,
10206,,,3.0142998695373535,0.43335050344467163
10207,2.7852041874380875,8.734047889709473,,
10226,,,,-2.6240451335906982
10227,3.265304038596948,11.829751014709473,3.6990416049957275,
10246,,,,-4.819528102874756
10247,5.609045162438732,12.60307788848877,5.051765441894531,
10267,5.398488907079313,13.57512378692627,4.960785865783691,-0.3926490843296051
10286,,,,4.266467571258545
10287,7.477962414655479,14.173673629760742,3.337517261505127,
10306,6.026116118195094,,0.26336219906806946,3.6559460163116455
10307,,12.835315704345703,,
10326,,,0.043095629662275314,-3.117250680923462
10327,3.1524311795690236,11.453861236572266,,
10347,12.487984948197457,13.15853214263916,5.509057998657227,-12.550405502319336
10365,12.707848378084726,21.049821853637695,6.380547523498535,-4.199429988861084
10385,1.93685385481699,10.680533409118652,3.5194764137268066,-2.10210919380188
10405,,,,-1.987187385559082
10406,5.50082755365267,4.146757125854492,4.170699596405029,
10425,,,,-3.7038300037384033
10426,6.0539528284116,4.941632270812988,-0.5147533416748047,
10445,6.913480124219532,10.278307914733887,-4.120420932769775,-2.6791117191314697
10465,2.9539428870091435,8.757989883422852,-0.47644615173339844,-1.9321208000183105
10485,4.74215612762481,,5.035006046295166,-1.048660397529602
10486,,5.791574001312256,,
10505,7.911157585155172,4.431667327880859,8.085219383239746,-0.9457096457481384
10525,7.118747042018152,4.110844135284424,6.732495307922363,-1.7142484188079834
10545,,,3.936067581176758,-2.013523578643799
10546,4.9171323178579645,4.896142482757568,,
10565,,,1.9632453918457031,-2.9257144927978516
10566,2.4955943388551707,7.189787864685059,,
10585,1.9316820346570933,8.62391471862793,0.7733271718025208,-3.0621838569641113
10605,,,,-1.1851298809051514
10606,4.0844308325432666,7.953537940979004,-1.7693150043487549,
10625,5.13855179835239,9.155426979064941,-2.5091233253479004,0.790086567401886
10645,4.611414984887155,9.708487510681152,-1.6041151285171509,1.2282254695892334
10664,,,,1.0007762908935547
10665,4.194395849579383,11.458649635314941,-0.5267243981361389,
10684,,,-1.3646949529647827,-0.35913026332855225
10685,4.3207592586591845,11.923124313354492,,
10704,5.005763356228943,,-2.078166961669922,0.2298433631658554
10705,,11.939884185791016,,
10724,4.2316561482857065,11.137825965881348,-1.5466543436050415,0.49559974670410156
10744,,,-0.07900865375995636,0.3878606855869293
10745,3.7090215294429854,12.133813858032227,,
10763,,,,-2.1092917919158936
10764,3.68421893513229,13.19205093383789,1.7381904125213623,
10784,,,,-5.264849662780762
10785,4.371588548569991,11.310209274291992,3.5218706130981445,
10803,,,,-8.640673637390137
10804,6.736776043386052,8.69334602355957,0.7254431247711182,
10824,,,,-6.75883150100708
10825,5.191090272080676,8.099584579467773,-0.8188169598579407,
10844,3.7686586941465405,,-0.19632454216480255,-6.050147533416748
10845,,8.93037223815918,,
10864,,,,-7.261613845825195
10865,7.703440940212103,13.792996406555176,4.881777286529541,
10883,13.817533240543177,20.858285903930664,7.759607791900635,-4.077325344085693
10903,7.643483007700984,,5.863399982452393,-2.985569477081299
10904,,14.501679420471191,,
10923,1.3911792207931946,10.199298858642578,1.4077905416488647,-2.9257144927978516
10943,3.62345616581342,8.092401504516602,-2.693476915359497,-1.1324573755264282
10963,6.224886373072685,,-4.9152960777282715,-0.6392518281936646
10964,,6.92881965637207,,
10983,6.417026592250068,5.504269599914551,-4.177882194519043,-0.6105214357376099
11002,,,,-0.8834604024887085
11003,6.0584234315800645,4.3191399574279785,-2.1571757793426514,
11023,5.222245559008966,4.486733913421631,-0.09576806426048279,-1.1683704853057861
11042,,,,-1.1563993692398071
11043,4.915965380466815,4.845864295959473,1.8052281141281128,
11062,,,3.579331636428833,-0.42377370595932007
11063,4.938911912137581,5.717353820800781,,
11083,4.935010451409154,6.54574728012085,3.7708675861358643,0.8786720037460327
11102,,,2.693476915359497,0.2944868206977844
11103,4.190332621843933,6.3063273429870605,,
11122,,,,0.06464344263076782
11123,3.3206944862991974,7.661445617675781,3.292027235031128,
11142,,,,-1.237802267074585
11143,3.4149025029888382,10.687716484069824,4.575319290161133,
11162,5.250349305657758,11.702857971191406,4.8482584953308105,-5.109226226806641
11182,3.324238545126873,,4.393360137939453,-2.212242364883423
11183,,11.051634788513184,,
11221,,,,4.146757125854492
11222,7.01914539667112,13.814543724060059,0.7445967197418213,
11260,10.44875656103993,12.282255172729492,3.1435868740081787,-11.322179794311523
11300,4.152025413332508,13.182474136352539,3.6750996112823486,-2.43011474609375
11339,,,,-3.883395195007324
11340,8.183528024049906,2.5258827209472656,-1.0534487962722778,
14172,,,0.035913024097681046,-2.8993782997131348
14173,8.558820616145397,1.3934253454208374,,
14212,8.788313336126865,8.69334602355957,-6.392518520355225,-3.023876667022705
14251,,,,-2.698265314102173
14252,6.507776450324072,7.704541206359863,8.01339340209961,
14291,,,7.2783732414245605,-1.824381709098816
14292,9.057797389127252,2.097320795059204,,
14331,1.0439681504751679,8.856152534484863,2.367865562438965,-2.964021682739258
14371,6.131741919892582,9.497797966003418,-3.9671921730041504,0.363918662071228
14410,,,,1.2066776752471924
14411,4.575369047695215,10.101137161254883,-1.6903064250946045,
14450,3.9100412510015405,,0.26336219906806946,-0.9888052940368652
14451,,12.928689002990723,,
14490,,,,0.7350199222564697
14491,3.504255568699189,11.338939666748047,0.5363011956214905,
14530,,,,-3.8355112075805664
14531,3.61842407445462,11.319786071777344,3.9671921730041504,
14570,,,,-8.87291145324707
14571,6.72934132950647,7.9631147384643555,-0.7445967197418213,
14610,6.121843731475627,12.947842597961426,3.6583402156829834,-6.768408298492432
14650,8.649976750160679,15.073893547058105,6.593631267547607,-3.552995204925537
14690,3.1174698704148427,8.47786808013916,-2.2170307636260986,-1.259350061416626
14731,,,-4.1395745277404785,-0.706289529800415
14732,5.943072785667544,6.246472358703613,,
14771,,,-0.6392518281936646,-0.8978256583213806
14772,5.884068409473438,3.952826976776123,,
14810,,,,-0.5147533416748047
14811,5.085258848790699,4.896142482757568,2.3271639347076416,
14851,4.420330519250123,6.921637058258057,3.3662476539611816,0.8092401623725891
14890,,,,-0.9840168952941895
14891,3.2224317807714833,8.743624687194824,4.448426723480225,
14931,5.366228265014108,11.559206008911133,5.856217384338379,-4.529829502105713
14968,,,,3.2321722507476807
14969,6.625028790105486,13.917494773864746,0.5482721924781799,
15008,,,,-11.39161205291748
15009,10.854561025493032,13.618219375610352,4.189853191375732,
15050,4.368781111228525,13.12261962890625,4.19224739074707,-1.05105459690094
15090,9.03895108509555,,-0.17717093229293823,-3.026270866394043
15091,,0.8858546018600464,,
15129,8.65598029532455,10.26394271850586,-6.107608318328857,-3.8570590019226074
15168,,,,-1.7549498081207275
15169,5.533177444069861,8.631096839904785,7.3454108238220215,
15208,,,,-0.9074024558067322
15209,7.396847708183967,3.5673606395721436,6.4380083084106445,
15248,,,1.173158884048462,-1.9991583824157715
15249,2.4472807254310163,7.036558628082275,,
15288,,,,-0.7637503147125244
15289,5.09009444233452,8.090007781982422,-3.0765492916107178,
15328,3.151805505570781,,-0.14844051003456116,0.6200982332229614
15329,,9.387664794921875,,
15367,,,,-0.5722141861915588
15368,4.2770389535381845,13.168108940124512,0.3256114423274994,
15407,,,,0.2346317619085312
15408,4.8730290659118465,10.994174003601074,-2.626439332962036,
15447,,,,-1.0558429956436157
15448,4.020499629007035,12.986149787902832,3.155557870864868,
15487,5.292275921849067,,2.691082715988159,-7.261613845825195
15488,,8.801085472106934,,
68164,,,,-5.2672438621521
68165,3.915774034006609,8.281543731689453,-1.8315643072128296,-0.8547300100326538
68202,,,,1.0989385843276978
68203,5.51846923113913,9.394847869873047,4.771644115447998,
68242,,,5.779603004455566,-4.764461517333984
68243,5.484016080669975,11.23598861694336,,
68290,,,,1.5825673341751099
68291,8.270324640140815,15.559916496276855,5.051765441894531,
68303,9.122095769371528,16.35479164123535,1.845929503440857,3.821146011352539
68326,6.573001850944478,14.106636047363281,-1.1899182796478271,2.0829553604125977
68342,9.934221986622415,11.319786071777344,0.5339069962501526,-11.537657737731934
68362,14.498215137991986,14.81771469116211,6.157886981964111,-14.439430236816406
68382,10.334215270112358,19.06981658935547,5.367800235748291,-1.7741034030914307
68401,,,,-3.603273630142212
68402,4.342055834256148,7.627926826477051,5.856217384338379,
68422,4.829376354827039,4.51067590713501,3.2154128551483154,-2.691082715988159
68441,,,,-3.9480385780334473
68442,5.994262813392935,6.332663536071777,-2.252943754196167,
68461,8.231800234165965,8.020575523376465,-5.78678560256958,-3.7277719974517822
68481,,,,-2.8131868839263916
68482,3.5428608096670695,6.265625953674316,0.2992752194404602,
68501,6.502881218494284,5.30076265335083,6.600813865661621,-2.669534921646118
68521,,,8.743624687194824,-2.248155355453491
68522,8.671237571589723,4.369418144226074,,
68541,9.61754249890593,1.7980455160140991,7.915230751037598,-1.8171991109848022
68561,6.972102842621852,2.87064790725708,5.128379821777344,-2.477998733520508
68581,3.096616091717283,6.133944988250732,2.9688100814819336,-3.6128504276275635
68601,2.3809685247873045,10.055646896362305,0.31124621629714966,-4.240131378173828
68622,6.441803910083479,10.230423927307129,-3.8498764038085938,-1.0845733880996704
68640,8.780686547064128,9.5408935546875,-5.47075080871582,1.5466543436050415
68661,7.168823124746242,9.904812812805176,-2.959233283996582,2.4851813316345215
68680,,,-1.173158884048462,0.9409212470054626
68681,4.969785954185545,11.022904396057129,,
68700,5.815218054109898,12.1194486618042,-2.2385785579681396,0.5602431893348694
68720,5.582513018267051,12.260706901550293,-2.231395959854126,0.23942017555236816
68740,4.469523542984637,12.284648895263672,0.1412578970193863,0.7038952708244324
68760,4.613544401694985,13.773842811584473,2.6192567348480225,-1.5155296325683594
68780,5.5068126447292896,11.520898818969727,4.060565948486328,-6.912060260772705
68799,8.85170557860973,,1.4748282432556152,-11.528080940246582
68800,,8.53293514251709,,
68819,5.498519004484369,7.15387487411499,-1.3072341680526733,-7.398083209991455
68840,5.037551251096298,10.599130630493164,1.647210717201233,-8.027758598327637
68860,13.476682517581525,18.997989654541016,6.97430944442749,-9.703699111938477
68880,12.693831043369736,17.877504348754883,8.851364135742188,-5.262455463409424
68899,,,,-3.421314239501953
68900,6.559918577107589,12.739546775817871,5.418078422546387,
68919,,,0.2346317619085312,-2.9233202934265137
68920,0.5911998444024656,9.840168952941895,,
68939,,,,-1.2665326595306396
68940,3.865317029102999,7.8529815673828125,-2.8634653091430664,
68959,,,,-0.6584054827690125
68960,6.307160791687276,6.888118267059326,-4.970362663269043,
68980,,,,-0.11252748221158981
68981,6.955463967551428,5.20978307723999,-4.4508209228515625,
68999,,,,-0.3711012601852417
69000,7.548736153223686,2.956839084625244,-2.652775526046753,
69020,,,,-0.48602294921875
69021,8.173879694804464,1.778891921043396,-1.3503297567367554,
69041,7.268228700137331,2.3942017555236816,0.16759411990642548,-0.8930372595787048
69059,6.694109921079728,3.3039982318878174,1.6831238269805908,0.08858546614646912
69079,5.649285006223617,5.66228723526001,2.477998733520508,1.4652514457702637
69099,4.154402472799892,7.568071365356445,2.6431987285614014,0.8379706144332886
69118,,,,0.2944868206977844
69119,4.1073057817640155,9.543288230895996,4.122815132141113,
69139,,,,-3.931279182434082
69140,5.052130546218128,11.628637313842773,5.535394191741943,
69159,,,,-6.335057735443115
69160,7.0444255894122145,11.868058204650879,6.6391215324401855,
69178,,,,0.7709329724311829
69179,7.788406941366519,14.748282432556152,6.1052141189575195,
69199,8.748566428323057,,2.7246015071868896,4.039018154144287
69200,,15.547945976257324,,
69218,,,,0.7733271718025208
69219,4.902481478393987,13.153743743896484,-0.21308395266532898,
69239,,,,-14.520833015441895
69240,13.12323160519816,12.911930084228516,1.8339585065841675,
69259,,,,-13.606247901916504
69260,15.88760668390863,19.041086196899414,6.4595561027526855,
69279,,,3.1938650608062744,0.6392518281936646
69280,7.501133642351012,16.256629943847656,,
69299,,,,-2.3535003662109375
69300,5.4383568801081745,6.100425720214844,6.933608055114746,
69318,,,,-3.825934410095215
69319,6.07753062345258,3.6535518169403076,1.6328455209732056,
69339,7.678679329250251,9.375694274902344,-4.438849925994873,-3.890577793121338
69358,,,,-4.963180065155029
69359,11.248362443209615,8.29590892791748,-8.209717750549316,
69378,,,,-2.631227731704712
69379,2.2170596063676897,7.5632829666137695,1.0869675874710083,
69398,,,7.441178798675537,-3.5218706130981445
69399,6.3077199230341074,6.57926607131958,,
69418,,,,-1.8315643072128296
69419,10.383157854959908,3.028665065765381,10.196905136108398,
69438,,,8.769960403442383,-1.3072341680526733
69439,10.934871684761877,0.6416460275650024,,
69458,,,,-2.279279947280884
69459,7.668869144474831,1.941697597503662,4.8267107009887695,
69478,,,,-3.045424461364746
69479,4.412533439531135,4.752490520477295,3.0095114707946777,
69498,,,0.5626373887062073,-3.6367924213409424
69499,1.8779077870822245,9.435548782348633,,
69518,5.995621036944575,10.508151054382324,-3.397372245788574,-1.6663644313812256
69537,,,,1.259350061416626
69538,8.385140727618866,9.41400146484375,-5.056553840637207,
69558,7.4469231927731405,9.607931137084961,-3.825934410095215,1.7836803197860718
69578,5.169729289008358,10.556035041809082,-1.7142484188079834,0.7374141216278076
69598,5.808888287442471,11.647790908813477,-2.449268341064453,0.44771572947502136
69617,,,-2.985569477081299,-0.22744916379451752
69618,5.971387989221791,12.009315490722656,,
69637,,,,0.608127236366272
69638,5.217713030280357,12.447454452514648,-1.1540051698684692,
69657,5.46244439766735,,1.7932571172714233,0.05746084079146385
69658,,14.18803882598877,,
69676,,,,-2.2864625453948975
69677,3.052412586007148,10.290278434753418,4.393360137939453,
69697,7.352484001757076,7.309497833251953,4.448426723480225,-9.026140213012695
69717,,,1.5634137392044067,-12.51449203491211
69718,10.023983233633427,6.718130111694336,,
69736,,,,-7.967903137207031
69737,5.6372501495549425,8.26239013671875,-1.8626888990402222,
69757,9.252799770278571,15.569493293762207,3.670311212539673,-9.47146224975586
69777,21.767056496806276,27.993005752563477,9.0859956741333,-9.488221168518066
69796,,,,-4.469974517822266
69797,11.148799513437323,16.656461715698242,7.999027729034424,
69816,,,4.486733913421631,-3.6750996112823486
69817,4.5955686537381535,10.32858657836914,,
69836,,,,-1.3048399686813354
69837,2.7494852277820567,7.314286231994629,-0.21547815203666687,
69856,,,-4.4292731285095215,0.10534487664699554
69857,6.631684008461647,6.066906929016113,,
69876,,,-4.5825018882751465,0.15083470940589905
69877,7.6881192585947185,,,
69895,,,,-0.1149216815829277
69896,8.494133214888123,2.8371291160583496,-4.048594951629639,
69916,,,,-1.170764684677124
69917,9.320651794039012,1.0103530883789062,-3.00711727142334,
69935,,,,-1.2473790645599365
69936,8.901392847004294,1.335964560508728,-2.612074136734009,
69956,6.9308456261664055,2.892195701599121,0.47405192255973816,-0.2585737705230713
69976,,,,0.7613561153411865
69977,6.177108515859117,4.323928356170654,2.2625205516815186,
69995,,,,3.7229835987091064
69996,7.102634865146025,9.155426979064941,4.357447147369385,
70016,4.479296210729653,,5.1116204261779785,-0.2561795711517334
70017,,9.500192642211914,,
70035,,,,-3.2609026432037354
70036,4.321546712834531,10.869675636291504,5.367800235748291,
70055,,,,-5.628767967224121
70056,5.20785866163816,10.642226219177246,5.319916248321533,
70075,,,,2.293645143508911
70076,8.229475442107237,14.798561096191406,5.602431774139404,
70095,,,3.2992098331451416,4.733336925506592
70096,10.682597145586945,17.460912704467773,,
70114,,,,-0.5817909836769104
70115,4.462376885091578,13.522451400756836,0.31603461503982544,
70135,18.2982167860376,11.08754825592041,2.942473888397217,-20.084957122802734
70155,19.848780581591704,,8.149862289428711,-13.342885971069336
70156,,24.334665298461914,,
70174,6.858326060529571,15.607800483703613,2.6168625354766846,0.7661445140838623
70194,,,,-1.161187767982483
70195,5.604868489202044,6.605602264404297,7.534552574157715,
70214,,,,-5.216965675354004
70215,5.9114747527534455,5.547365188598633,0.1867477297782898,
70234,8.936670224811435,8.544905662536621,-5.959167957305908,-3.3446998596191406
70254,,,,-2.2840683460235596
70255,8.884526257698296,6.287173748016357,-6.011840343475342,
70274,4.037570700011676,6.026205539703369,3.4763808250427246,-2.674323320388794
70295,7.6903996155166015,5.157110691070557,8.061277389526367,-1.9584569931030273
70314,9.73227978931252,,8.185775756835938,-2.3726539611816406
70315,,2.049436569213867,,
70333,,,,-1.1875240802764893
70334,10.32696037247495,0.5913678407669067,7.395689010620117,
70353,,,,-2.1930887699127197
70354,7.370373842858725,2.4899697303771973,4.977545261383057,
70375,5.066943255621527,4.95120906829834,3.576937437057495,-4.692635536193848
70393,,,-0.7230489253997803,-4.02465295791626
70394,3.3440977967394607,8.757989883422852,,
70413,6.975884997373597,10.960655212402344,-4.125209331512451,-0.5147533416748047
70433,,,,2.1787235736846924
70434,7.760560009206432,10.943896293640137,-3.648763418197632,
70453,6.075392709605506,10.855310440063477,-2.185906171798706,1.4053963422775269
70473,,,,1.625662922859192
70474,7.33747628255257,11.707646369934082,-3.5386300086975098,
70493,7.394864243608295,12.102689743041992,-4.575319290161133,-0.31364041566848755
70512,,,,0.004788403399288654
70513,5.380034816586742,11.939884185791016,-2.3319525718688965,
70533,,,,-0.8403648138046265
70534,4.240188717870843,13.357251167297363,1.9177556037902832,
70553,4.126553329694468,11.305420875549316,5.015852451324463,-3.667917013168335
70572,,,,-10.228029251098633
70573,8.910395142840889,7.3238630294799805,5.499481201171875,
70593,9.251077950017754,6.057330131530762,4.671087741851807,-10.704475402832031
70612,,,,-8.892065048217773
70613,6.0058911330461155,9.99100399017334,-0.3878606855869293,
70633,14.9108777170223,21.346702575683594,5.801150798797607,-10.285490036010742
70652,,,,-7.752425193786621
70653,19.541544943012198,26.084827423095703,8.834604263305664,
70672,8.334244131541901,14.79616641998291,6.222530364990234,-4.213795185089111
70691,,,,-2.9257144927978516
70692,2.2901131884325103,8.374917984008789,2.3295583724975586,
70711,,,,-0.35673606395721436
70712,4.783469090324086,6.023811340332031,-1.968033790588379,
70732,8.9703384747218,,-5.4875102043151855,1.0989385843276978
70733,,3.9815573692321777,,
70752,9.560398643833002,,-5.0469770431518555,0.9074024558067322
70753,,2.63362193107605,,
70771,,,,0.1867477297782898
70772,10.31013785387557,0.6392518281936646,-3.861847400665283,
70792,11.149337721515927,,-3.361459255218506,-0.8738836050033569
70793,,-0.6943184733390808,,
70813,11.144989571170711,-0.38067805767059326,-4.113238334655762,-1.7693150043487549
70831,,,,-0.7230489253997803
70832,8.167371395092248,1.7764976024627686,-1.137245774269104,
70851,,,4.932055473327637,3.1268274784088135
70852,6.981652875048701,7.836222171783447,,
70870,,,,2.762908697128296
70871,9.81648008453132,11.101913452148438,9.361329078674316,
70891,7.520413655611882,,8.947132110595703,-3.581725835800171
70892,,10.053253173828125,,
70911,6.424832519248313,13.369222640991211,4.496310710906982,-6.617573261260986
70932,4.092626053366629,,2.5019407272338867,-0.8403648138046265
70933,,13.043610572814941,,
70949,11.777694206021264,19.041086196899414,3.780444383621216,4.268861770629883
70969,7.4619211557067775,15.164873123168945,0.2777273952960968,2.5785553455352783
70989,5.393565208125037,10.613495826721191,-0.2513911724090576,-6.734889507293701
71010,18.795192931804397,9.38048267364502,5.932831764221191,-20.23100471496582
71030,17.82538168392852,,9.658209800720215,-2.832340717315674
71031,,25.46951675415039,,
71049,2.9547151996962278,9.72285270690918,4.884171485900879,-3.9456443786621094
71070,3.638710140532824,7.094019412994385,6.069301128387451,-1.3096283674240112
71089,,,,-4.410119533538818
71090,6.429459077617784,8.121131896972656,-2.6001031398773193,
71109,,,,-2.274491548538208
71110,8.960244003106993,7.572859764099121,-5.944802761077881,
71129,,,-0.2777273952960968,-2.1595699787139893
71130,4.465359555384349,5.803544998168945,,
71149,,,,-3.845088005065918
71150,6.213838257363308,4.194641590118408,5.286397457122803,
71169,,,,-2.717418909072876
71170,7.986643131244777,2.7317841053009033,6.777985095977783,
71189,,,5.542576789855957,-2.169146776199341
71190,8.164848851932431,1.702277421951294,,
71209,8.46508799976409,1.0606313943862915,5.070919036865234,-3.6104562282562256
71228,,,,-2.2673089504241943
71229,7.458846545188336,2.557007312774658,6.248866558074951,
71249,3.3856585293962147,7.793126583099365,5.868188381195068,-2.557007312774658
71269,5.823928262897557,10.077195167541504,-2.33913516998291,-0.6224924325942993
71289,11.499184621017362,11.60948371887207,-7.857769966125488,0.27054479718208313
71307,,,-7.570465564727783,2.03507137298584
71308,11.601110707743475,11.853693008422852,,
71326,,,,1.6543933153152466
71327,6.713983876826859,10.60152530670166,-2.698265314102173,
71347,5.945922339062141,13.354857444763184,-0.9648633003234863,0.4836287498474121
71366,,,,0.07422025501728058
71367,4.748720900327686,12.29662036895752,-0.4812345504760742,
71387,,,,-1.357512354850769
71388,4.101712469356477,13.050793647766113,1.0773907899856567,
71407,,,,-10.802638053894043
71408,8.616055038063841,11.113883972167969,3.8091750144958496,
71427,13.477094645290764,7.228095054626465,6.086060523986816,-15.466543197631836
71448,5.756611547392125,6.349422931671143,-0.09576806426048279,-7.7643961906433105
71468,10.707965374474158,17.772159576416016,3.315969467163086,-9.423578262329102
71487,24.64224367503584,29.88442611694336,9.437943458557129,-13.529633522033691
71508,11.904556274091354,17.24543571472168,9.095572471618652,-4.1874589920043945
71527,,,4.644751071929932,-2.360682964324951
71528,4.140484731925432,9.428366661071777,,
71547,,,,-0.5434837937355042
71548,3.1814718652488687,7.24485445022583,0.7445967197418213,
71567,,,,0.11013327538967133
71568,7.322085105886954,,-3.0358476638793945,
71569,,3.9863457679748535,,
71587,,,-3.88818359375,0.06464344263076782
71588,8.616191401800505,2.964021682739258,,
71607,8.556101392147877,1.941697597503662,-2.6886885166168213,-1.0414776802062988
71627,,,,-0.569819986820221
71628,10.071921161636963,0.2059013396501541,-2.3511061668395996,
71647,,,,-0.8068459630012512
71648,10.453871627623707,0.10055647045373917,-3.112462282180786,
71668,11.96321252755681,-0.586579442024231,-4.618414878845215,0.033518824726343155
71687,9.847258024474932,1.2665326595306396,-3.272873640060425,0.26575639843940735
71707,,,,3.8762125968933105
71708,6.87644638105635,7.630321025848389,3.1962592601776123,
71746,,,12.397176742553711,-7.967903137207031
71747,14.102209018247317,16.859968185424805,,
71784,,,3.1052796840667725,6.110002517700195
71785,12.013438012121831,17.48724937438965,,
71824,10.727216485321307,10.307038307189941,3.691859006881714,-12.832921028137207
71946,,,-4.568136692047119,0.08140286058187485
71947,7.75425554156595,5.583278179168701,,
71983,,,,-4.046200752258301
71984,7.833079340719575,1.9776105880737305,3.8091750144958496,
72022,,,,-4.019864559173584
72023,8.10840496516433,1.3862427473068237,3.778050184249878,
72062,,,,0.2537853717803955
72063,9.343273954480654,5.1595048904418945,9.406818389892578,
72102,,,-3.361459255218506,-1.9321208000183105
72103,6.014911876866909,7.843404769897461,,
72142,12.025266749859375,9.708487510681152,-9.655815124511719,-0.17956513166427612
72182,,,,0.5099649429321289
72183,6.0974716950369965,13.311761856079102,-0.043095629662275314,
72222,,,,-3.869029998779297
72223,1.4981029753643547,9.255983352661133,0.004788403399288654,
72262,6.300981947652181,8.209717750549316,6.078877925872803,-7.316680431365967
72302,,,,-7.196970462799072
72303,7.212145405586216,15.351621627807617,1.216254472732544,
72342,,,,-8.38688850402832
72343,7.695749709978412,14.513650894165039,2.873042106628418,
72382,4.686974254370597,,2.782062292098999,-5.4228668212890625
72383,,12.69405746459961,,
72422,16.549064051966617,24.478317260742188,5.147533416748047,-7.3023152351379395
72462,,,,-3.0526070594787598
72463,4.684737752212693,12.140996932983398,4.414907932281494,
72500,,,,-0.40701428055763245
72501,6.43260643892851,3.9647979736328125,-0.6248866319656372,
72540,,,-2.8371291160583496,0.6392518281936646
72541,12.935356220520477,-2.229001760482788,,
72580,12.767080198384914,-2.7772738933563232,0.16759411990642548,1.3742717504501343
72620,10.110893312374468,-0.7374141216278076,3.4620156288146973,-1.3694833517074585
72659,,,,0.1867477297782898
72660,8.049277648739912,1.7693150043487549,1.3982137441635132,
72699,,,,-9.155426979064941
72700,9.080291752098203,3.9839515686035156,0.3471592366695404,
72739,,,,-10.043676376342773
72740,14.801970397103176,19.57978057861328,-6.888118267059326,
72779,15.516175720336987,23.64752960205078,4.8722004890441895,-7.513004779815674
72828,,,,-3.93367338180542
72829,8.375152131022663,17.391481399536133,2.322375535964966,
72838,,,,-2.4181437492370605
72839,3.5203040964811065,12.521675109863281,0.8810662031173706,
72859,2.368500298295295,,1.0582371950149536,-1.6759412288665771
72860,,10.706870079040527,,
72879,3.026090497899402,7.220912456512451,2.3104045391082764,-2.0398597717285156
72899,4.12553795283337,5.700594425201416,2.319981336593628,-4.752490520477295
72920,,,,-7.694964408874512
72921,6.09744635739412,5.475539207458496,3.4141316413879395,
72938,,,,-5.987898349761963
72939,6.724399196631924,3.0813376903533936,3.1028854846954346,
72958,9.062712989145846,-0.06703764945268631,1.3503297567367554,-2.9903578758239746
72978,,,,-0.5267243981361389
72979,11.976541478088205,-2.403778553009033,-0.38067805767059326,
72998,,,,-0.15801730751991272
72999,12.022240056721763,-2.011129379272461,-1.7142484188079834,
73019,,,,-7.754819393157959
73020,11.5654484469181,-0.33997663855552673,-1.86508309841156,
73039,14.423781974579182,5.185841083526611,1.5203180313110352,-16.45774269104004
73058,,,7.797914981842041,-16.498443603515625
73059,14.94425473256257,9.442731857299805,,
73078,,,,22.086511611938477
73079,40.88993389987244,35.5515022277832,19.407398223876953,
73098,12.518002173588593,19.845537185668945,1.7693150043487549,-9.823410034179688
73118,,,-1.4437036514282227,-9.32302188873291
73119,12.932056405914034,20.015525817871094,,
73138,13.67197600409119,20.40338706970215,-5.152322292327881,-5.537788391113281
73158,6.047047851615411,12.260706901550293,1.2617442607879639,0.9074024558067322
73177,,,,0.9983820915222168
73178,4.974728232777167,9.244012832641602,1.460463047027588,
73198,6.660942035756724,8.583212852478027,-0.8643068075180054,2.205059766769409
73218,8.237290273494354,6.624756336212158,-3.663128614425659,1.7549498081207275
73237,8.106379372793043,,-3.622427225112915,-0.7829039692878723
73238,,3.9647979736328125,,
73257,,,-2.3918075561523438,-1.37906014919281
73258,8.440127267465558,2.118868589401245,,
73278,,,1.1875240802764893,-1.7597382068634033
73279,6.306452507646528,2.8993782997131348,,
73298,,,4.036623954772949,-1.9488801956176758
73299,7.732542988521689,1.5131354331970215,,
73317,,,,4.110844135284424
73318,10.396114327730066,3.665522813796997,6.50025749206543,
73337,,,2.032677173614502,2.142810583114624
73338,7.174716095840183,4.666299343109131,,
73356,,,,-20.125659942626953
73357,18.17890270786742,1.8315643072128296,4.711789131164551,
73376,29.967496430051614,28.830976486206055,19.74737548828125,-16.850391387939453
73396,10.021070026819585,19.02432632446289,1.9943699836730957,-3.315969467163086
73416,7.5142473318268665,15.466543197631836,-1.0007762908935547,-2.63362193107605
73435,,,,-4.326322555541992
73436,6.32887124265099,9.93593692779541,-3.536235809326172,
73456,4.766426994504931,9.35654067993164,-2.4133553504943848,-1.577778935432434
73475,,,0.272938996553421,-2.2409727573394775
73476,2.3809083428170332,7.467514991760254,,
73495,,,,-2.980781078338623
73496,3.7444919825277174,7.438784599304199,4.793191909790039,
73515,,,,-3.2417490482330322
73516,7.556177444046558,2.8371291160583496,5.7556610107421875,
73535,7.718977334076346,,3.270479440689087,-3.6367924213409424
73536,,1.3670891523361206,,
73555,8.488353604299311,0.26096799969673157,2.1523873805999756,-4.436455726623535
73575,7.404378533824967,1.98958158493042,3.9600095748901367,-7.0341644287109375
73595,,,,-1.9919757843017578
73596,6.546188573427074,8.853757858276367,7.513004779815674,
73615,,,,-1.4987702369689941
73616,3.821873133511528,6.50025749206543,2.827552318572998,
73635,,,,0.8523358106613159
73636,5.802861908519425,8.98543930053711,0.035913024097681046,
73655,,,,0.3280056416988373
73656,7.229172353898009,8.944737434387207,-3.383007049560547,
73674,,,,0.6105214357376099
73675,8.012281051238965,8.813055992126465,-4.513070106506348,
73694,,,,-0.2322375625371933
73695,9.432496215916615,9.651026725769043,-6.756437301635742,
73715,8.505960506359184,12.05959415435791,-4.752490520477295,0.9145850539207458
73734,,,,0.7805097699165344
73735,5.802887546362795,10.72841739654541,-1.8124107122421265,
73754,,,1.3311761617660522,0.7972691655158997
73755,6.052006714992996,13.223176002502441,,
73774,5.3414387305671065,13.390769958496094,4.522646903991699,-4.247313976287842
73794,,,,-10.582371711730957
73795,7.355087813340053,9.524134635925293,4.2544965744018555,
73814,,,,-12.303802490234375
73815,8.551731884542315,7.156269073486328,0.7781155705451965,
73834,4.787898209945448,11.243170738220215,1.2689268589019775,-8.42040729522705
73854,12.614717734282642,17.017986297607422,6.119579315185547,-12.236764907836914
73874,,,,-8.743624687194824
73875,17.20720106684081,23.69062614440918,7.177816867828369,
73894,10.04485864413552,14.65011978149414,7.951143741607666,-4.687847137451172
73914,5.4770782706710195,11.51850414276123,4.364629745483398,-2.612074136734009
73934,2.545688938056266,8.418013572692871,0.2801215946674347,-1.599326729774475
73953,,,-2.849100112915039,-1.2258312702178955
73954,5.365944975352955,5.549759387969971,,
73973,7.985968682682223,3.2321722507476807,-3.691859006881714,-0.16998831927776337
73993,8.057807917331933,2.365471363067627,-2.7748796939849854,-0.6823474764823914
74013,,,-2.3080103397369385,-1.5634137392044067
74014,8.182907563714078,1.6855180263519287,,
74033,,,-2.892195701599121,-1.1683704853057861
74034,8.59065462719973,1.6160861253738403,,
74053,,,,-1.3335703611373901
74054,9.20308976741452,1.5538369417190552,-4.129997730255127,
74073,,,0.6607996821403503,-0.42856210470199585
74074,6.639636875012914,3.2848446369171143,,
74093,6.503882788996725,5.623979568481445,3.35667085647583,1.1109095811843872
74113,7.557762995367123,8.968679428100586,5.406107425689697,2.2649147510528564
74134,6.6321070714942225,10.697293281555176,6.215347766876221,0.10295066982507706
74153,4.811961354418385,12.145785331726074,4.173093795776367,-5.398924827575684
74173,,,4.424484729766846,-6.5912370681762695
74174,5.087541599712831,11.010933876037598,,
74193,11.993207280541075,17.42739486694336,5.540182590484619,4.244919776916504
74212,,,,2.719813108444214
74213,9.062166194687489,16.326061248779297,1.0079588890075684,
74232,,,,-2.1068975925445557
74233,3.7733618055376987,12.469002723693848,-0.751779317855835,
74253,21.254198803927544,11.276689529418945,3.3686418533325195,-23.822307586669922
74272,22.369864956103264,28.38086700439453,8.322244644165039,-12.12902545928955
74293,6.679983888709461,14.401123046875,3.1890766620635986,0.7781155705451965
74312,6.663906511491326,,6.797138690948486,-4.467580318450928
74313,,4.28322696685791,,
74332,6.77499396404828,3.265691041946411,0.31124621629714966,-4.865017890930176
74352,,,,-3.9432501792907715
74353,8.574285930118366,6.722918510437012,-5.566518783569336,
74372,8.424113186763247,6.208165168762207,-5.906495571136475,-1.3120225667953491
74396,3.3888255323591876,7.42681360244751,3.998316764831543,-3.56017804145813
74411,,,7.802703380584717,-2.2385785579681396
74412,7.53055046916574,5.456385612487793,,
74431,,,,-1.3527239561080933
74432,7.679864828986504,3.117250680923462,5.813121795654297,
74452,7.710069230655709,2.164358377456665,4.975151062011719,-2.628833532333374
74471,,,,-2.492363929748535
74472,8.077896911824661,1.7525556087493896,5.2265424728393555,
74491,6.705994603110217,,5.5976433753967285,-3.0119056701660156
74492,,3.35667085647583,,
74511,2.279748605454348,,0.49559974670410156,-2.980781078338623
74512,,7.340622425079346,,
74531,7.447077378865914,9.311050415039062,-4.738125324249268,-0.44771572947502136
74550,,,,0.9409212470054626
74551,9.772926957588467,10.070012092590332,-6.658275127410889,
74571,6.860553336111944,11.274295806884766,-2.7078421115875244,1.2689268589019775
74591,,,,0.5554547905921936
74592,6.547424439019359,11.875240325927734,-2.676717519760132,
74610,6.7351269224763115,,-3.711012601852417,-0.5530605912208557
74611,,11.954249382019043,,
74630,6.762141011241056,13.06755256652832,-2.892195701599121,0.038307227194309235
74650,5.0036535266245155,13.069947242736816,1.9321208000183105,0.1843535304069519
74670,4.60129576138242,11.949460983276367,4.37420654296875,-0.7541735172271729
74690,,,5.161899089813232,-12.650961875915527
74691,10.346531059058137,7.8745293617248535,,
74710,,,,-13.323732376098633
74711,10.801264399229856,5.585672378540039,3.090914487838745,
74729,,,,-10.345345497131348
74730,8.63628677260951,5.243301868438721,-2.760514497756958,
74750,8.948382388078935,15.392322540283203,1.161187767982483,-10.211270332336426
74769,,,8.80587387084961,-16.203956604003906
74770,23.82588104188122,27.483041763305664,,
74789,,,,-6.9240312576293945
74790,12.694593128657115,18.89743423461914,6.916848659515381,
74809,,,4.2951979637146,-5.274426460266113
74810,5.49697619459422,11.736376762390137,,
74829,,,,-1.6759412288665771
74830,2.6744244999237194,7.977479934692383,1.4724340438842773,
74850,4.364201324909943,7.647080421447754,-2.75812029838562,-0.3256114423274994
74870,6.381343901388873,6.217741966247559,-4.326322555541992,0.10534487664699554
74889,7.272273870986892,3.797203779220581,-3.8115692138671875,-0.8044517636299133
74909,,,,-1.4891934394836426
74910,7.960570921239873,2.0183119773864746,-2.360682964324951,
74929,8.349906564520975,1.3694833517074585,-1.7597382068634033,-1.6663644313812256
74949,8.084825463236426,1.680729627609253,-1.5083470344543457,-1.2856862545013428
74968,,,,0.6584054827690125
74969,9.146555901719578,1.0414776802062988,-0.8978256583213806,
74989,8.755775507419553,2.3558945655822754,1.7812861204147339,2.4133553504943848
75008,6.791049609402311,,1.4293384552001953,1.8315643072128296
75009,,4.271255970001221,,
75029,2.0151539333413306,7.759607791900635,1.0749965906143188,-1.5155296325683594
75048,,,4.055777549743652,-7.010222434997559
75049,5.544550362906503,11.695674896240234,,
75068,,,,-4.680664539337158
75069,8.995538665435642,14.36760425567627,8.226476669311523,
75088,16.36138489772441,20.614076614379883,10.019734382629395,4.692635536193848
75108,,,,3.6367924213409424
75109,9.607777433258498,16.390705108642578,3.1723172664642334,
75128,3.5571320899629715,8.901641845703125,0.35434186458587646,-5.781997203826904
75147,,,,-26.00102996826172
75148,24.006941745110414,7.173028469085693,4.742913722991943,
75167,,,,-4.853046894073486
75168,25.93295564482696,34.87873077392578,5.446808815002441,
75188,3.1404564655689446,,1.5825673341751099,-4.747702121734619
75189,,11.647790908813477,,
75207,,,4.039018154144287,-2.477998733520508
75208,4.622656150973888,4.537012100219727,,
75227,5.904420276580101,,-1.7357962131500244,-4.7620673179626465
75228,,6.7492547035217285,,
75247,,,,-4.3191399574279785
75248,10.03162761227058,8.99740982055664,-7.259219646453857,
75267,,,,-2.956839084625244
75268,5.507712938206963,7.615955829620361,-3.248931646347046,
75287,4.844972911400747,5.719748020172119,4.534617900848389,-3.4620156288146973
75307,,,,-1.8076223134994507
75308,9.497355042727275,2.784456491470337,8.300697326660156,
75326,,,,-2.3511061668395996
75327,9.416969857075179,1.8626888990402222,7.433996200561523,
75346,,,,-1.5083470344543457
75347,8.282296514063898,2.2433669567108154,6.076483726501465,
75366,,,,-2.5330653190612793
75367,7.586468254717341,2.300827741622925,5.370194435119629,
75387,4.419153892694769,4.786009311676025,3.313575267791748,-4.455609321594238
75406,3.5203387723806725,,-1.1635819673538208,-3.8498764038085938
75407,,7.857769966125488,,
75425,,,,-2.099714994430542
75426,6.211893720613015,8.98543930053711,-3.823540210723877,
75445,7.343871030418888,9.751583099365234,-3.3303346633911133,1.434126853942871
75465,6.814999463087636,10.225635528564453,-2.22660756111145,1.8914192914962769
75485,8.43851041042063,11.05402946472168,-4.838681697845459,1.3120225667953491
75505,9.042599209512007,10.94150161743164,-6.517016887664795,-0.2322375625371933
75525,9.95776948702561,13.697227478027344,-7.074865818023682,-1.4173674583435059
75545,4.712831334777798,13.079524040222168,-0.2944868206977844,-0.8379706144332886
75565,5.504939548808429,12.698845863342285,5.6191911697387695,-2.786850690841675
75584,,,6.222530364990234,-11.60948371887207
75585,9.791391788168527,8.793902397155762,,
75605,,,,-14.858415603637695
75606,12.510868687950827,4.970362663269043,3.7660791873931885,
75625,,,,-8.257601737976074
75626,5.96078327024429,5.825092792510986,-1.137245774269104,
75645,11.680510527022138,16.96770668029785,3.7684733867645264,-11.868058204650879
75665,26.358254273744592,31.03843116760254,9.703699111938477,-14.286201477050781
75685,11.869255523602579,,7.3238630294799805,-6.347028732299805
75686,,17.537527084350586,,
75704,,,,-4.786009311676025
75705,4.869739922505286,11.4849853515625,3.7421371936798096,
75725,2.1097134919021157,7.326257228851318,-0.21308395266532898,-2.4660277366638184
75744,,,,-0.009576806798577309
75745,6.1024908514708285,5.779603004455566,-3.890577793121338,
75765,,,-5.549759387969971,0.790086567401886
75766,8.14747913902213,4.881777286529541,,
75784,8.594765564992887,3.2082302570343018,-4.8482584953308105,0.31603461503982544
75804,8.51665480800134,,-3.2106244564056396,-0.5482721924781799
75805,,1.922544002532959,,
75824,8.563640880454676,1.45806884765625,-2.609679937362671,-1.1300631761550903
75844,,,,-2.346317768096924
75845,8.433319186272898,1.4939818382263184,-2.7676970958709717,
75864,,,1.1085153818130493,0.28730419278144836
75865,7.830590139782305,2.255337953567505,,
75884,8.275092603274809,4.692635536193848,4.242525577545166,2.736572504043579
75904,,,,1.8914192914962769
75905,6.449763496262079,6.871358871459961,3.907337188720703,
75924,,,,-3.2417490482330322
75925,2.0572528561822487,9.033323287963867,2.8203697204589844,
75944,6.655118031132189,10.587160110473633,4.929661273956299,-8.291120529174805
75964,8.332982577253627,,8.288725852966309,-2.410961151123047
75965,,12.583924293518066,,
75983,,,,5.925649166107178
75984,16.069662078172044,20.702661514282227,7.675810813903809,
76004,6.977572890160303,,0.24420857429504395,1.5610195398330688
76005,,14.875175476074219,,
76022,,,,-3.531447410583496
76023,,,-2.387019157409668,
76024,3.601462671050705,10.077195167541504,,
76043,,,,-21.20783805847168
76044,19.05654443980671,6.478709697723389,0.0454898327589035,
76064,17.935350242749042,24.025814056396484,7.589619159698486,-10.721235275268555
76083,8.819742459712986,17.056293487548828,2.7126305103302,-6.842628479003906
76103,3.110333625586035,8.133103370666504,5.190629482269287,-3.3925838470458984
76122,,,,-6.124367713928223
76123,4.612075686903201,,0.395043283700943,
76124,,7.311892032623291,,
76142,,,,-3.713406801223755
76143,7.784550836109345,,-5.013458251953125,
76144,,10.690110206604004,,
76163,6.10296935055378,7.091625213623047,-3.224989652633667,-4.37420654296875
76182,,,,-2.013523578643799
76183,5.863790328603357,4.110844135284424,4.266467571258545,
76202,,,7.089231014251709,-2.255337953567505
76203,8.273532481454321,3.19865345954895,,
76222,8.842254835790172,,7.364564418792725,-3.8355112075805664
76223,,2.6575639247894287,,
76242,8.51532217064756,2.2170307636260986,6.301538944244385,-1.2689268589019775
76281,,,,-4.1180267333984375
76282,5.264419372364345,4.146757125854492,3.114856481552124,
76320,,,,-2.5905263423919678
76321,6.362466496527396,9.366117477416992,-4.513070106506348,
76480,,,4.855441093444824,-6.897695064544678
76481,4.7164992465622495,7.625532627105713,,
76520,5.609567452957255,6.72531270980835,6.4380083084106445,-5.983109951019287
76559,,,,-17.046716690063477
76560,25.388955473957445,29.88921356201172,6.9910688400268555,
76599,,,3.648763418197632,-5.5760955810546875
76600,5.1612101423665155,12.655750274658203,,
76639,6.48788967248548,5.458779811859131,-2.7676970958709717,0.8667010068893433
76679,8.48211448722053,3.3686418533325195,-4.252102375030518,0.004788403399288654
76719,,,-3.1196448802948,-1.7908629179000854
76720,8.204712458005746,2.300827741622925,,
76758,,,2.4013843536376953,0.2059013396501541
76759,6.833588603144141,3.3686418533325195,,
76798,6.695583698562293,,1.9105730056762695,0.6991068720817566
76799,,3.6846764087677,,
76838,4.736443297568755,9.423578262329102,5.461174011230469,-6.540958881378174
76878,14.478264664837361,,4.831499099731445,3.095702886581421
76879,,21.540632247924805,,
76918,13.630347646084637,6.528987884521484,0.13407529890537262,-16.476896286010742
76958,,,,1.048660397529602
76959,14.207083340398043,22.500707626342773,1.3263877630233765,
76998,2.1973679446662606,7.546523571014404,2.3487119674682617,-4.714183330535889
77037,,,,-4.5394062995910645
77038,8.917862666364224,9.423578262329102,-6.461950302124023,
77077,,,,-1.2234370708465576
77078,8.682181287650074,2.6408045291900635,7.232883453369141,
77117,,,6.490680694580078,-1.235408067703247
77118,10.021384453372931,0.26336219906806946,,
77157,,,,-3.485957622528076
77158,,,4.546588897705078,
77159,6.708676189246147,2.497152328491211,,
77197,,,,-3.536235809326172
77198,4.927870426121765,11.494562149047852,-1.5179238319396973,
77237,6.353330997067663,10.3549222946167,-0.9600749015808105,1.5658079385757446
77277,,,,0.7805097699165344
77278,8.803185267947983,10.967838287353516,-5.228936672210693,
77316,,,,1.4460978507995605
77317,7.260517778244409,13.345280647277832,-1.7836803197860718,
77369,,,,-10.022128105163574
77370,7.756754731040522,10.702081680297852,5.386953830718994,
77376,10.940701958767816,,2.43011474609375,-14.379575729370117
77377,,7.156269073486328,,
77396,4.501495748526152,6.464344501495361,-0.4213795065879822,-7.4770917892456055
77416,7.840425675961314,13.230358123779297,3.931279182434082,-10.194510459899902
77436,20.00626885396253,25.27079963684082,8.310274124145508,-12.229581832885742
77455,,,,-6.995857238769531
77456,11.239395908399267,17.12333106994629,7.015010833740234,
77475,,,,-4.417302131652832
77476,5.229882706736424,12.622231483459473,3.7612907886505127,
77495,,,,-1.941697597503662
77496,2.274648756642434,8.755595207214355,-0.6272808313369751,
77515,,,,-1.1659762859344482
77516,4.992361528351161,7.180211067199707,-3.318363666534424,
77535,,,,0.38307225704193115
77536,7.14692767098404,6.200982570648193,-4.654327869415283,
77555,7.048074218480463,4.687847137451172,-4.410119533538818,-1.0582371950149536
77575,,,,-1.4508862495422363
77576,7.1314922000767735,3.023876667022705,-2.6647465229034424,
77595,,,,-1.1444283723831177
77596,7.79625214743512,1.9776105880737305,-1.5418659448623657,
77615,,,,-1.3623007535934448
77616,8.416766880559285,1.1013327836990356,-0.5386953949928284,
77635,8.181895427146555,2.118868589401245,1.745373010635376,0.6560112833976746
77655,,,2.8826189041137695,1.3024457693099976
77656,7.978458967439589,2.999934673309326,,
77674,,,2.4420857429504395,2.7293899059295654
77675,7.0970765770958195,5.631162166595459,,
77694,3.0176072005071726,,2.3750481605529785,-0.6129156351089478
77695,,8.798690795898438,,
77714,,,,-6.27280855178833
77715,5.084568103014203,12.006921768188477,4.108449935913086,
77735,,,7.062894821166992,-6.768408298492432
77736,7.378771318743819,11.707646369934082,,
77754,,,8.841787338256836,2.2864625453948975
77755,11.50947379598854,15.569493293762207,,
77773,,,,2.9161376953125
77774,10.755644270195635,17.659631729125977,4.331110954284668,
77793,5.5300408889886805,13.453019142150879,-0.9672574996948242,0.028730420395731926
77813,,,,-17.63568878173828
77814,14.998107282117248,9.069235801696777,0.545877993106842,
77833,19.562397039465473,23.02264404296875,6.469132900238037,-15.78976058959961
77853,11.917455331451778,20.736181259155273,1.7956513166427612,-0.3495534360408783
77873,4.421469733871753,7.879317760467529,4.692635536193848,-6.658275127410889
77893,5.523438190638217,4.278438568115234,0.7038952708244324,-4.3622355461120605
77913,8.685442125028901,8.731653213500977,-4.967968463897705,-6.095637321472168
77934,10.820354100777429,7.544129371643066,-8.2312650680542,-3.9839515686035156
77953,3.7618970977240656,6.069301128387451,3.201047658920288,-1.048660397529602
77973,,,,-1.4676456451416016
77974,8.147067575699113,4.242525577545166,7.955932140350342,
77993,10.171477466790254,3.1890766620635986,9.770736694335938,-1.479616641998291
78013,,,,-1.381454348564148
78014,9.896209345583848,1.3072341680526733,7.668628215789795,
78033,,,4.616020679473877,-0.9744400978088379
78034,6.7799802373637466,3.2106244564056396,,
78053,4.059836585603741,5.0900726318359375,1.4077905416488647,-4.10366153717041
78073,4.155337814388208,8.271966934204102,-1.7741034030914307,-5.03021764755249
78092,,,-3.7660791873931885,-2.5474305152893066
78093,5.867178072458304,8.688557624816895,,
78113,5.26413966207546,7.094019412994385,-1.558625340461731,-0.06703764945268631
78132,,,1.3192051649093628,1.9081788063049316
78133,5.269882518464985,9.239224433898926,,
78152,,,,1.9823989868164062
78153,6.813586227192742,11.362881660461426,-1.5418659448623657,
78172,10.343026772653362,,-7.19936466217041,0.2322375625371933
78173,,12.234370231628418,,
78192,,,,0.5027823448181152
78193,,,-8.801085472106934,
78194,11.60600385841412,12.227188110351562,,
78211,6.670413426707757,12.42111873626709,-3.134010076522827,0.5913678407669067
78231,4.1321437128708824,12.660538673400879,3.3518824577331543,-1.6065093278884888
78251,7.901801143012328,9.945513725280762,6.430825710296631,-9.050082206726074
78271,,,,-13.06515884399414
78272,10.497077535189742,7.024587631225586,4.266467571258545,
78290,,,,-8.042123794555664
78291,6.12963629435501,5.200206279754639,1.9488801956176758,
78310,4.930252744065088,11.982979774475098,1.161187767982483,-7.762001991271973
78330,,,,-13.855245590209961
78331,19.528315404536627,24.530990600585938,6.543353080749512,
78351,14.381896910360412,21.282058715820312,6.042964935302734,-7.287950038909912
78370,,,,-5.475539207458496
78371,7.059945243644721,14.322114944458008,3.890577793121338,
78390,,,,-2.5258827209472656
78391,1.9021736711300525,8.094796180725098,0.8810662031173706,
78410,,,,-1.048660397529602
78411,4.446071459403137,5.9304375648498535,-2.2026655673980713,
78430,,,,0.5147533416748047
78431,7.062998256155461,6.311115741729736,-5.370194435119629,
78450,,,,0.08379705995321274
78451,7.467830585407234,,-5.319916248321533,
78452,,5.125985622406006,,
78470,7.295747265470556,,-4.20421838760376,-1.280897855758667
78471,,3.667917013168335,,
78490,,,,-1.6950948238372803
78491,7.034103696074498,3.026270866394043,-2.7557260990142822,
78510,6.939118617483059,2.5737667083740234,-0.6129156351089478,-1.6759412288665771
78530,7.614570864672874,2.7676970958709717,2.2385785579681396,0.33039984107017517
78550,8.627863754080982,2.7988216876983643,3.485957622528076,1.8124107122421265
78569,,,,1.5753847360610962
78570,6.894145870514747,4.350264549255371,2.300827741622925,
78590,2.6868830127867227,6.773196697235107,1.4700398445129395,-2.889801502227783
78610,5.409005405574953,,5.0876784324646,-6.069301128387451
78611,,10.721235275268555,,
78629,,,,-4.3622355461120605
78630,9.060971045592327,12.598289489746094,9.126696586608887,
78649,,,9.674968719482422,4.170699596405029
78650,15.193231702004063,19.237411499023438,,
78669,7.63323005151077,15.816096305847168,2.693476915359497,0.8068459630012512
78689,5.9857960102005165,11.96861457824707,-1.3096283674240112,2.188300371170044
78709,,,-1.5753847360610962,-8.164227485656738
78710,7.4202681237486505,5.9735331535339355,,
78729,15.785638119810342,7.587224960327148,3.1052796840667725,-17.887081146240234
78749,,,,-5.262455463409424
78750,20.87019192266022,29.58993911743164,5.659893035888672,
78769,6.85611475321682,10.826580047607422,3.758896589279175,-9.320627212524414
78789,2.581721161705756,7.247248649597168,4.110844135284424,-1.5658079385757446
78809,4.760093605659825,8.061277389526367,-1.501164436340332,-4.098873138427734
78829,8.014924433322813,,-5.389348030090332,-2.6455929279327393
78830,,7.216124057769775,,
78849,4.2639883625523005,5.853823184967041,-0.4668693244457245,-2.008735179901123
78869,5.393981065806706,5.743690013885498,5.556941986083984,-2.233790159225464
78888,,,,-2.983175277709961
78889,7.559975699330183,4.163516521453857,7.062894821166992,
78909,9.337514167989378,2.3104045391082764,7.953537940979004,-2.518700122833252
78928,,,,-0.727837324142456
78929,7.102127841650725,4.1156325340271,6.356605529785156,
78948,4.334592978477045,4.862623691558838,2.7988216876983643,-3.2154128551483154
78968,,,-0.7374141216278076,-4.60165548324585
78969,3.6600171106490937,7.1706342697143555,,
78988,,,,-1.8746598958969116
78989,6.150580724574852,9.23443603515625,-3.9863457679748535,
79008,,,-2.145204782485962,-0.17477671802043915
79009,5.254001001120517,7.759607791900635,,
79028,4.221790037846177,,0.7493851184844971,0.9696516990661621
79029,,9.038111686706543,,
79048,6.328278113502593,12.389993667602539,-1.2545616626739502,1.237802267074585
79068,8.63333567419229,12.763489723205566,-5.39174222946167,-0.26096799969673157
79087,,,,-0.4118026793003082
79088,9.933645208527746,11.365275382995605,-7.582436561584473,
79107,,,,0.26575639843940735
79108,4.618178208075978,10.527304649353027,-1.7094600200653076,
79127,,,2.8107926845550537,-1.9536685943603516
79128,2.724852104723254,11.525687217712402,,
79147,,,,-12.009315490722656
79148,9.559466111346616,8.453926086425781,4.017470359802246,
79167,11.607644528457246,6.1267619132995605,4.716577529907227,-13.723564147949219
79186,,,,-7.350199222564697
79187,4.6543276101849225,,2.3511061668395996,
79188,,7.146692276000977,,
79206,,,,-9.627084732055664
79207,11.753999070130345,18.748992919921875,3.7277719974517822,
79226,,,,-12.653355598449707
79227,23.40693710398359,,7.091625213623047,
79228,,29.53726577758789,,
79247,10.019356875919295,,4.876988887786865,-5.623979568481445
79248,,17.520767211914062,,
79266,,,,-3.2537200450897217
79267,2.590937180800321,10.41956615447998,2.2218191623687744,
79286,,,,-0.9672574996948242
79287,3.0902133339628604,7.283161640167236,-0.9696516990661621,
79306,6.6927224561094505,5.983109951019287,-4.750096321105957,0.20350714027881622
79326,,,,0.40940847992897034
79327,7.567771902602788,5.286397457122803,-5.250484466552734,
79346,7.928704863300574,3.246537446975708,-4.043806552886963,-0.3711012601852417
79365,,,,-1.6903064250946045
79366,7.549991572293258,2.5043349266052246,-2.4372973442077637,
79386,7.235255540027055,2.497152328491211,-1.6328455209732056,-2.2409727573394775
79405,,,,-0.8643068075180054
79406,6.712494532975398,,1.6543933153152466,
79407,,3.064578056335449,,
79425,,,4.137180328369141,2.698265314102173
79426,8.765105369791893,3.3638534545898438,,
79445,,,,0.993593692779541
79446,6.710370467258967,4.02465295791626,2.6360161304473877,
79466,2.8337859932826786,7.292738437652588,2.099714994430542,-1.115697979927063
79485,,,,-5.238513469696045
79486,3.3845371140586464,10.776301383972168,3.0765492916107178,
79505,,,,-6.327875137329102
79506,6.39826668871133,11.537657737731934,6.016628742218018,
79525,,,,2.8658595085144043
79526,13.07388437445883,18.59097671508789,8.238448143005371,
79545,8.19998219185733,,3.117250680923462,2.4205379486083984
79546,,15.562311172485352,,
79566,1.8949425319724473,10.891223907470703,0.48602294921875,-1.2880805730819702
79585,17.874231708794856,,2.698265314102173,-19.946094512939453
79586,,7.292738437652588,,
79605,,,,-10.608707427978516
79606,18.155625560744337,24.930822372436523,5.920860767364502,
79625,5.3163666061504085,14.15212631225586,0.23702596127986908,-4.271255970001221
79645,2.666009812121639,,4.551377296447754,-3.8786067962646484
79646,,9.62947940826416,,
79664,,,,-3.998316764831543
79665,4.155459450705777,8.010998725891113,-0.8068459630012512,
79684,8.500017951497588,8.621520042419434,-5.803544998168945,-3.7397429943084717
79704,,,-0.1628057211637497,-3.2848446369171143
79705,3.451496827868049,7.017405033111572,,
79725,6.416571215955885,,6.117185115814209,-2.2649147510528564
79726,,4.757278919219971,,
79744,,,9.399636268615723,-1.8363527059555054
79745,9.373083707145282,4.2329487800598145,,
79764,,,,-2.82515811920166
79765,9.9964776511373,1.41257905960083,7.762001991271973,
79784,8.082902038184473,2.0470423698425293,5.343858242034912,-1.778891921043396
79804,,,,-3.1052796840667725
79805,5.394986099635363,3.928884983062744,3.2130186557769775,
79823,,,,-5.228936672210693
79824,2.345379580784357,7.967903137207031,1.6089035272598267,
79844,,,,-2.4420857429504395
79845,4.579065219818726,9.576807022094727,-2.43011474609375,
79863,,,,-0.36152446269989014
79864,5.420848914243027,7.939172744750977,-2.3271639347076416,
79883,,,,1.115697979927063
79884,5.196801360910923,9.121908187866211,-0.7948749661445618,
79903,5.127995801712674,,-0.7805097699165344,0.7613561153411865
79904,,10.69489860534668,,
79923,,,-3.7397429943084717,0.5913678407669067
79924,7.096666719512199,10.99896240234375,,
79944,9.66385763285783,11.384428977966309,-7.319074630737305,-0.9864110946655273
79963,8.603487469803534,10.955866813659668,-6.495469093322754,-0.768538773059845
79983,,,0.7374141216278076,-1.7405846118927002
79984,3.6372553739844298,12.63899040222168,,
80003,7.527768418547508,12.023680686950684,6.007051944732666,-8.26478385925293
80023,10.217573278960984,6.524199485778809,4.376600742340088,-12.631808280944824
80042,,,,-8.858546257019043
80043,6.0889197352634294,6.4834980964660645,1.944091796875,
80062,,,,-8.200140953063965
80063,4.935337220702924,10.982203483581543,1.9847931861877441,
80082,18.446525201028717,,7.292738437652588,-12.78264331817627
80083,,23.551761627197266,,
80102,,,,-5.904101371765137
80103,14.679076291160788,21.547815322875977,6.959944248199463,
80122,6.840774795195642,14.319720268249512,3.88818359375,-5.341464042663574
80141,,,,-2.8658595085144043
80142,0.7615094410817629,9.287108421325684,0.19153612852096558,
80161,4.229979313288037,6.677428722381592,-2.983175277709961,-1.7262194156646729
80181,7.073655492053855,5.123591423034668,-4.565742492675781,0.2059013396501541
80200,,,,0.21787235140800476
80201,7.846424148472003,4.345476150512695,-4.955997467041016,
80220,,,,-0.9385270476341248
80221,7.957228765344341,2.674323320388794,-3.6080620288848877,
80241,7.567204548991609,2.293645143508911,-1.7908629179000854,-1.1228805780410767
80261,7.421768862316739,2.1954829692840576,-0.2777273952960968,-1.0845733880996704
80281,6.871903710611067,3.1076738834381104,1.8171991109848022,-0.3711012601852417
80301,7.727244286306336,3.7014358043670654,3.49314022064209,1.5059528350830078
80320,6.577512590257809,,3.313575267791748,1.6735470294952393
80321,,5.453991413116455,,
80340,3.4342940205545447,7.879317760467529,2.4133553504943848,-0.3208230137825012
80360,2.634831410032842,10.690110206604004,2.2218191623687744,-4.800374507904053
80380,5.9328434402587344,,4.778826713562012,-7.208941459655762
80381,,10.805032730102539,,
80401,11.073040611934678,16.196775436401367,8.101978302001953,1.599326729774475
80420,,,,3.1100680828094482
80421,10.477610377078697,16.797719955444336,5.200206279754639,
80440,,,,-0.28969839215278625
80441,3.6299676728713863,12.200851440429688,0.6799532771110535,
80460,15.586853826447184,8.367734909057617,1.3215993642807007,-18.004396438598633
80480,,,4.802768707275391,-13.812150001525879
80481,14.466795688411251,17.590200424194336,,
80500,9.865457293994481,18.856733322143555,0.11252748221158981,-4.965574264526367
80520,4.959172452986187,10.747570991516113,4.944026470184326,-6.294356346130371
80540,3.012701960081807,8.26239013671875,0.6129156351089478,-4.517858505249023
80560,7.525785751127586,7.711723804473877,-4.766855716705322,-4.173093795776367
80580,5.600318845118748,5.683835029602051,-2.2577321529388428,-2.913743495941162
80599,,,,-3.5482068061828613
80600,6.157180018782252,4.307168960571289,4.577713489532471,
80620,9.151124945521982,6.22731876373291,9.86650562286377,-1.479616641998291
80639,,,,-2.473210334777832
80640,9.38166877071131,3.1699230670928955,8.513781547546387,
80659,,,,-2.8179752826690674
80660,7.57594579451282,2.5091233253479004,5.147533416748047,
80679,5.070518266120392,,3.064578056335449,-2.31758713722229
80680,,4.323928356170654,,
80699,,,,-4.529829502105713
80700,3.4406555950526476,6.030993938446045,1.0319008827209473,
80719,,,,-3.6320040225982666
80720,5.442804489624836,7.869740962982178,-3.6104562282562256,
80739,4.803175376573305,7.340622425079346,-2.2840683460235596,-1.1875240802764893
80759,4.290453742513767,9.232041358947754,-0.05267243832349777,0.6416460275650024
80778,,,,0.44532153010368347
80779,5.137131637398533,12.105083465576172,0.1149216815829277,
80818,8.952128782653372,11.350910186767578,-6.076483726501465,0.4884171485900879
80857,3.454562755249361,10.548852920532227,-0.3974374830722809,-0.5291185975074768
80897,8.715753293247234,10.766724586486816,5.224148273468018,-11.037269592285156
123164,3.8076980867912584,,2.6575639247894287,-6.936002254486084
123165,,10.014945983886719,,
123167,7.621308480605084,1.8914192914962769,-0.4572925269603729,-1.2713210582733154
123206,,,,-0.22026655077934265
123207,6.466934022915209,4.031835556030273,2.5737667083740234,
123246,6.755709458711745,,4.817133903503418,1.3455413579940796
123247,,8.42040729522705,,
123286,7.96731901597056,13.06755256652832,6.6630635261535645,-7.441178798675537
123326,,,4.924872875213623,3.2345664501190186
123327,11.645086183732712,17.43697166442871,,
123365,,,,-15.543157577514648
123366,15.982865695788393,18.914194107055664,5.006275653839111,
123405,,,,0.8738836050033569
123406,6.892866189698015,10.8720703125,6.339846134185791,
123446,,,,-5.061342239379883
123447,8.346135744915642,1.6639702320098877,-1.039083480834961,
123486,7.041234501625746,9.749189376831055,-5.173870086669922,-4.199429988861084
123525,,,,-2.2601263523101807
123526,7.885239982557255,7.709329605102539,9.277531623840332,
123566,8.759874711904374,1.9081788063049316,6.0190229415893555,-0.6033388376235962
123605,,,,-3.550601005554199
123606,4.400411213819455,4.570530891418457,1.316810965538025,
123645,,,-2.473210334777832,-1.01753568649292
123646,4.876359603264168,8.983044624328613,,
123685,5.458112212305564,11.417947769165039,-0.8188169598579407,0.6272808313369751
123725,4.801204951362246,,-0.6751648783683777,-0.4572925269603729
123726,,11.961431503295898,,
123764,,,,1.8842366933822632
123765,6.0386016788322525,,-1.647210717201233,
123766,,10.879252433776855,,
123804,,,,-3.2297780513763428
123805,4.393294313765942,12.631808280944824,4.24970817565918,
133173,5.609988888272247,14.415488243103027,3.162740468978882,-2.3989901542663574
133213,6.781199652840893,8.051700592041016,1.9800047874450684,-10.132261276245117
133252,5.577392359044986,12.112266540527344,2.4684219360351562,-8.157045364379883
133292,10.124448784788274,14.92066478729248,8.190564155578613,-3.955221176147461
133331,,,,-2.229001760482788
133332,1.6565820613009108,8.497021675109863,-0.15083470940589905,
133371,,,,-0.667982280254364
133372,6.644927661694323,5.566518783569336,-4.271255970001221,
133411,,,,-0.6751648783683777
133412,6.930162828522429,3.1747114658355713,-1.479616641998291,
133452,,,,-0.9624691009521484
133453,5.069469223078029,4.6734819412231445,1.2234370708465576,
133491,,,,0.569819986820221
133492,4.860245114648323,7.618350028991699,3.9624037742614746,
133531,,,,-0.8834604024887085
133532,3.6130015991866236,9.959878921508789,4.278438568115234,
133571,5.235040878529787,12.538434028625488,5.463568210601807,-3.507505416870117
133610,,,2.032677173614502,3.4572272300720215
133611,7.2587685011859,13.886369705200195,,
133650,13.918542670772863,12.54561710357666,5.980715751647949,-15.116989135742188
133690,,,,-0.5913678407669067
133691,2.9926457863386093,11.001357078552246,3.6942532062530518,
133731,,,,-4.314351558685303
133732,6.508291677943264,4.434061527252197,-1.1228805780410767,
133770,,,,-2.4181437492370605
133771,5.442377117488721,7.201758861541748,-2.7222073078155518,
133810,7.672656856560535,5.276820659637451,8.669404029846191,-1.8267759084701538
137173,15.897498820569227,16.062698364257812,7.285555839538574,-16.28057098388672
137212,,,,-0.8188169598579407
137213,2.8811625899752773,8.29830265045166,4.07014274597168,
137252,7.193813834748135,5.633556365966797,-3.2752678394317627,-4.323928356170654
137272,,,,-3.4380736351013184
137276,9.795080577291083,8.219294548034668,-7.33583402633667,
137292,3.6346333852220507,6.897695064544678,-0.8978256583213806,-2.3774423599243164
137312,4.4915032172439435,6.763619899749756,5.286397457122803,-1.9129672050476074
137332,8.446951990203608,4.975151062011719,9.045293807983398,-1.7980455160140991
137351,,,,-1.5442601442337036
137352,8.955028924006061,2.3511061668395996,7.934384346008301,
137371,,,,-1.6160861253738403
137372,6.9056531553292615,2.58813214302063,4.829104900360107,
137391,3.6037956149693975,,2.8155810832977295,-3.2968156337738037
137392,,5.118803024291992,,
137411,0.8548458392048517,8.815450668334961,1.9297266006469727,-3.469198226928711
137431,4.423492890512767,9.550470352172852,-1.0055646896362305,-1.37906014919281
137451,6.738850179786271,9.715670585632324,-2.5665841102600098,0.7350199222564697
137471,5.919061883364758,9.840168952941895,-1.4628572463989258,1.0438719987869263
137491,5.696114859033716,12.021286964416504,-1.0821791887283325,0.16759411990642548
137510,,,,-0.14365209639072418
137511,6.964666290504229,13.357251167297363,-2.276885747909546,
137531,7.023919518620122,13.2710599899292,-2.612074136734009,0.05746084079146385
137550,,,-0.42856210470199585,0.5315127968788147
137551,5.44596291903264,12.78503704071045,,
137570,4.701906572342656,13.381193161010742,1.7118542194366455,-0.4429273009300232
137590,,,4.094084739685059,-3.758896589279175
137591,2.9269437021276654,10.855310440063477,,
137610,5.22026158901441,7.548917770385742,3.134010076522827,-7.539340972900391
137630,6.098526085560327,7.6997528076171875,-0.06464344263076782,-8.576030731201172
137650,5.423600595583173,9.17697525024414,-1.702277421951294,-7.750030994415283
137670,8.694420123514833,15.703569412231445,4.697423934936523,-7.766790390014648
137690,12.700149919721358,19.27092933654785,7.996633529663086,-5.542576789855957
137710,8.054612197301976,13.982137680053711,7.0557122230529785,-3.375824451446533
137729,,,,-2.406172752380371
137730,1.7692321120292136,10.105925559997559,2.051830768585205,
137749,,,,-1.213860273361206
137750,3.184769002780927,8.422801971435547,-1.601720929145813,
137769,,,,-0.363918662071228
137770,6.270959119918691,6.873753070831299,-4.230554580688477,
137789,,,,-0.3974374830722809
137790,7.315999554900525,5.058948040008545,-4.4077253341674805,
137809,7.764006478638577,,-2.937685489654541,-0.5171475410461426
137810,,3.0837318897247314,,
137830,7.832116972722896,2.190694570541382,-1.5059528350830078,-1.0247182846069336
137849,,,-0.15322890877723694,-1.2114660739898682
137850,6.864221620267548,2.8107926845550537,,
137869,,,,-0.45489832758903503
137870,5.887357012719277,3.9049429893493652,1.9153614044189453,
137889,,,,0.9552865028381348
137890,5.170953674309553,6.349422931671143,3.713406801223755,
137910,4.747573634375602,7.8314337730407715,4.8602294921875,0.38307225704193115
137929,,,,0.07900865375995636
137930,4.834421539575801,9.327810287475586,5.66228723526001,
137949,5.3707968667950015,11.444284439086914,5.928043365478516,-5.032611846923828
137969,4.548020261224524,11.224017143249512,5.109226226806641,-4.853046894073486
137989,7.427262127950323,15.145719528198242,4.853046894073486,1.2737152576446533
138009,,,2.537853717803955,3.711012601852417
138010,8.337665754097532,15.3731689453125,,
138028,,,,2.3965959548950195
138029,6.066005047502691,13.2710599899292,0.08619125932455063,
138049,,,,-10.656591415405273
138050,9.067241401781668,11.403582572937012,1.944091796875,
138068,,,,-15.598223686218262
138069,15.782312096840258,15.167267799377441,7.079654216766357,
138088,,,,-2.4636335372924805
138089,8.443533541532963,17.19515609741211,5.288791656494141,
138108,,,,-1.8746598958969116
138109,2.201883168959265,9.512163162231445,4.795586109161377,
138128,,,,-1.479616641998291
138129,4.511246297300473,4.747702121734619,3.936067581176758,
138148,7.685950642586344,5.552153587341309,-3.0597896575927734,-4.666299343109131
138168,,,,-2.829946517944336
138169,8.804732125413752,8.073247909545898,-5.980715751647949,
138188,,,,-2.8107926845550537
138189,3.6331206816525063,6.478709697723389,0.40222588181495667,
138208,,,,-2.5977089405059814
138209,5.512623605185754,7.2568254470825195,7.2137298583984375,
138228,,,9.971850395202637,-1.9273324012756348
138229,8.709653422733917,5.556941986083984,,
138247,,,,-1.4197616577148438
138248,8.563451560948934,2.5761611461639404,7.529764175415039,
138268,7.116444051627288,2.4396915435791016,4.194641590118408,-1.216254472732544
138288,4.992455512599795,4.194641590118408,1.9129672050476074,-2.535459518432617
138307,,,,-2.849100112915039
138308,2.2001998637186615,8.96389102935791,0.16998831927776337,
138327,,,,-1.0630255937576294
138328,5.426883901298592,9.294290542602539,-2.956839084625244,
138347,,,-3.021482467651367,0.849941611289978
138348,6.250199886940336,9.873687744140625,,
138367,,,,1.0199298858642578
138368,4.662476747674718,9.780313491821289,-0.9145850539207458,
138387,3.847583378910198,11.231200218200684,0.2537853717803955,0.2585737705230713
138407,,,,0.40222588181495667
138408,5.670012365257061,12.555193901062012,-1.4939818382263184,
138427,6.458678730578277,11.439496040344238,-3.4141316413879395,0.3280056416988373
138446,,,,0.9552865028381348
138447,5.241300004629137,,-1.920149803161621,
138448,,11.03248119354248,,
138467,4.492391087438305,13.129801750183105,1.2449848651885986,0.2801215946674347
138486,,,,-3.6343982219696045
138487,5.115463688660101,12.816162109375,5.245696067810059,
138506,,,3.866635799407959,-7.321468830108643
138507,5.422260721431307,9.909601211547852,,
138526,7.727867270867969,8.245630264282227,0.11252748221158981,-10.137049674987793
138546,5.033861892096967,8.47547435760498,-1.3838485479354858,-7.242460250854492
138566,,,,-8.236053466796875
138567,7.507328776040284,13.017274856567383,4.8482584953308105,
138586,,,,-7.321468830108643
138587,13.786886226103537,19.771318435668945,8.259995460510254,
138606,,,,-3.536235809326172
138607,10.27233091711434,14.94221305847168,8.734047889709473,
138626,,,,-3.4117374420166016
138627,3.859225374479681,11.66694450378418,3.337517261505127,
138646,,,,-2.2577321529388428
138647,1.3852668145767981,9.155426979064941,-0.6392518281936646,
138666,5.083095524129158,7.314286231994629,-3.7253777980804443,-1.2617442607879639
138685,,,,-0.6320692300796509
138686,6.8554804353532885,5.683835029602051,-4.63517427444458,
138705,,,,-0.2968810200691223
138706,7.592510860110025,3.31118106842041,-3.066972494125366,
138725,,,,-0.33518823981285095
138726,7.578258395249913,2.5115175247192383,-1.3000515699386597,
138745,,,-0.4165911078453064,-0.6871358752250671
138746,6.515525176749563,3.3231520652770996,,
138766,5.70423355824957,4.137180328369141,1.4484920501708984,-0.3926490843296051
138785,5.300694891522037,5.48272180557251,3.2992098331451416,0.31842881441116333
138806,5.243623039518231,7.445967197418213,4.242525577545166,1.3407529592514038
138825,,,,-0.3232172429561615
138826,3.764201801488802,7.829039573669434,4.055777549743652,
138845,2.8613772860004594,9.332598686218262,4.1611223220825195,-1.381454348564148
138865,,,,-4.642356872558594
138866,5.781034228448079,12.078747749328613,6.069301128387451,
138885,7.115347765789456,13.340492248535156,7.41484260559082,-3.0573954582214355
138905,9.059819949889405,,5.331887245178223,3.4524388313293457
138906,,15.682021141052246,,
138924,,,,0.9576807022094727
138925,5.228406731857742,13.800178527832031,0.8020575642585754,
138945,12.180196755108845,14.279019355773926,2.846705913543701,-12.978967666625977
138964,,,,-12.49055004119873
138965,15.782224115201917,20.566192626953125,5.384559631347656,
138984,8.251889099233866,,3.823540210723877,2.1787235736846924
138985,,16.304513931274414,,
139004,,,4.711789131164551,-1.86508309841156
139005,3.799466100630628,6.2392897605896,,
139024,,,,-3.6343982219696045
139025,6.6015954372329215,3.162740468978882,1.6065093278884888,
139044,8.950020936057042,,-5.336675643920898,-5.039794445037842
139045,,7.9415669441223145,,
139063,,,,-3.9240965843200684
139064,10.18447550243829,8.382100105285645,-7.386112213134766,
139083,,,,-3.804386615753174
139084,3.141287055383326,7.326257228851318,1.137245774269104,
139103,,,,-2.0231003761291504
139104,6.326981354026517,6.732495307922363,7.833827972412109,
139123,,,10.611102104187012,-1.745373010635376
139124,9.767724774256541,4.4939165115356445,,
139143,,,,-1.235408067703247
139144,8.754384277582853,2.22660756111145,7.3669586181640625,
139163,,,3.5745432376861572,-0.9768342971801758
139164,7.145359865152984,2.3127987384796143,,
139183,,,1.9632453918457031,-3.5721490383148193
139184,5.13004835883059,4.129997730255127,,
139203,1.1956886248253018,,1.558625340461731,-3.4620156288146973
139204,,9.279925346374512,,
139223,4.179614941689128,9.500192642211914,-1.7836803197860718,-1.8722656965255737
139243,,,,0.8140285611152649
139244,6.153354331683655,9.691728591918945,-2.8395233154296875,
139263,5.4708302056486895,10.321403503417969,-1.4628572463989258,1.482010841369629
139282,,,,-0.17477671802043915
139283,4.37534527097398,11.568782806396484,-0.8523358106613159,
139302,,,,-0.7972691655158997
139303,5.164500531015878,12.172121047973633,-1.941697597503662,
139322,,,-2.832340717315674,-0.13407529890537262
139323,6.119327955060264,12.564770698547363,,
139343,,,,0.790086567401886
139344,4.40794394106795,11.585541725158691,-0.7134721279144287,
139365,4.176075624343896,,1.7932571172714233,0.22505496442317963
139366,,12.895170211791992,,
139382,3.869748525605795,,4.623203277587891,-2.920926094055176
139383,,11.726799964904785,,
139401,6.115515079592291,9.009381294250488,5.382165431976318,-7.072471618652344
139421,,,,-11.046846389770508
139422,8.586040576041876,8.492233276367188,1.0534487962722778,
139441,5.528349552370342,8.461109161376953,-2.612074136734009,-6.715735912322998
139461,7.074728852053492,12.598289489746094,2.6216509342193604,-9.093177795410156
139480,,,,-8.039729118347168
139481,12.658671884402136,19.122488021850586,6.751648902893066,
139500,,,,-4.711789131164551
139501,10.381219309670168,15.207969665527344,8.683769226074219,
139520,4.867140866174067,11.099518775939941,4.93923807144165,-3.201047658920288
139540,,,0.1604115068912506,-2.051830768585205
139541,1.0414167422247556,8.916007041931152,,
139560,4.714277965159467,7.642292022705078,-3.246537446975708,-0.9888052940368652
139580,6.63185053343354,5.841852188110352,-4.388571739196777,-0.7541735172271729
139600,7.115691411944417,4.010287761688232,-3.064578056335449,-0.22266076505184174
139620,7.378944764407824,2.7557260990142822,-1.525106430053711,-0.6488286852836609
139639,,,,-0.6440402865409851
139640,6.618924215903888,3.3255462646484375,-0.7326257228851318,
139659,,,,-0.3926490843296051
139660,5.955862782431635,3.8594532012939453,0.4692635238170624,
139679,,,,0.33997663855552673
139680,4.873138267867924,5.394136428833008,1.920149803161621,
139699,,,3.3303346633911133,1.3479355573654175
139700,4.597636751896846,7.424419403076172,,
139719,,,,0.646434485912323
139720,3.9244060480013845,8.147468566894531,3.804386615753174,
139739,2.746534331183017,,4.10366153717041,-1.2282254695892334
139740,,9.648633003234863,,
139759,,,,-4.613626480102539
139760,4.8979176514674725,11.556811332702637,5.1116204261779785,
139779,,,,-2.7700912952423096
139780,5.749625152311222,12.179304122924805,6.54574728012085,
139799,9.04752981290098,15.227123260498047,6.301538944244385,3.4548330307006836
139819,,,,4.508281707763672
139820,8.134259391136059,14.882357597351074,1.3503297567367554,
139839,,,,-1.4437036514282227
139840,4.152752085549197,12.203246116638184,-1.3623007535934448,
139860,13.510622719531888,11.367670059204102,4.398148536682129,-14.664484977722168
139879,,,7.972691535949707,-10.11789608001709
139880,15.968028550544854,21.543025970458984,,
139899,,,,-1.0079588890075684
139900,4.548622241342272,13.555970191955566,3.866635799407959,
139919,,,,-2.4013843536376953
139920,2.8767790887405726,7.230489253997803,4.46518611907959,
139939,,,0.9074024558067322,-4.525041103363037
139940,5.5804575256038245,5.114014625549316,,
139959,,,,-3.2130186557769775
139960,7.194284703245864,8.154650688171387,-4.091690540313721,
139978,,,,-3.270479440689087
139979,8.803625955028682,6.7708024978637695,-5.738901615142822,
139999,,,,-2.1523873805999756
140000,4.15797055993018,5.4013190269470215,2.3487119674682617,
140019,7.153754319705089,5.3127336502075195,7.781155586242676,-2.140416383743286
140038,,,,-2.1116859912872314
140039,8.837362941774455,,8.937555313110352,
140040,,3.9240965843200684,,
140058,,,,-1.4413094520568848
140059,8.651002029857898,,7.050923824310303,
140060,,2.2242133617401123,,
140079,,,3.5745432376861572,-2.5115175247192383
140080,5.4104114899177835,4.017470359802246,,
140098,,,2.43011474609375,-4.079719543457031
140099,2.910816501758429,6.892906665802002,,
140118,,,0.2944868206977844,-2.801215887069702
140119,2.1254355040433817,9.859322547912598,,
140138,,,-2.7724854946136475,-0.021547814831137657
140139,5.560315335340071,9.560047149658203,,
140158,6.561125693151148,9.694122314453125,-3.2848446369171143,1.3048399686813354
140178,5.600993831185021,10.81460952758789,-2.013523578643799,1.3000515699386597
140198,5.925964714735734,,-1.9704279899597168,0.0694318488240242
140199,,13.043610572814941,,
140217,,,,-0.15562310814857483
140218,6.344228341244474,13.340492248535156,-2.540247917175293,
140237,4.436085650209663,,-1.3096283674240112,-0.002394201699644327
140238,,11.741165161132812,,
140257,4.012368154290731,,0.8236053586006165,-0.14365209639072418
140258,,12.880805015563965,,
140277,,,,-2.5905263423919678
140278,3.8166241461593877,12.696451187133789,3.6367924213409424,
140297,,,,-6.845022678375244
140298,5.504730617712731,9.617507934570312,4.5825018882751465,
140317,,,1.5322890281677246,-11.537657737731934
140318,9.232382415758176,8.56884765625,,
140337,,,-2.1332337856292725,-6.19379997253418
140338,5.0651788099684225,8.161833763122559,,
140357,6.4146313432476685,,1.946485996246338,-8.611943244934082
140358,,12.1194486618042,,
140377,13.234273538572111,19.49598503112793,7.000645637512207,-8.432378768920898
140396,,,,-3.756502389907837
140397,10.535005618593141,15.263035774230957,8.99740982055664,
140416,,,,-3.155557870864868
140417,4.4865851189588595,11.192893028259277,4.534617900848389,
140436,,,,-1.721431016921997
140437,1.40098557011309,9.121908187866211,-0.3663128614425659,
140456,,,,-1.0103530883789062
140457,5.282879459528783,7.922413349151611,-4.05817174911499,
140476,,,,-0.7852981686592102
140477,7.266613046057483,6.246472358703613,-5.47075080871582,
140496,,,-3.756502389907837,-0.08140286058187485
140497,7.531911987082188,3.9671921730041504,,
140517,7.5788425381142,,-1.3287819623947144,-0.5841852426528931
140518,,2.4636335372924805,,
140536,,,0.011971008032560349,-0.7829039692878723
140537,6.846628080344122,2.8826189041137695,,
140556,,,,-0.5123591423034668
140557,5.82514971757617,3.9432501792907715,1.8291701078414917,
140577,,,2.7748796939849854,0.9576807022094727
140578,5.079992144721258,5.719748020172119,,
140596,4.043163114289356,7.347805023193359,3.2178070545196533,0.8188169598579407
140616,,,,0.545877993106842
140617,3.4402579601177177,8.743624687194824,3.6391866207122803,
140635,,,,-1.4101848602294922
140636,3.6915855404541604,10.876858711242676,4.967968463897705,
140655,,,,-5.882553577423096
140656,6.07350811005793,11.070788383483887,5.937620162963867,
140695,9.130861672793829,,4.850652694702148,4.443638324737549
140696,,15.562311172485352,,
140734,,,1.0103530883789062,-7.771578788757324
140735,6.822782263754539,12.234370231628418,,
140886,10.321328193300905,19.50556182861328,4.278438568115234,-2.2816741466522217
140893,,,,-2.070984363555908
140894,4.645368316140555,5.990292549133301,5.413290023803711,
140933,9.441059578089275,2.6455929279327393,8.87291145324707,-1.6352397203445435
140973,4.030632267426505,5.231330871582031,2.434903144836426,-2.6144683361053467
141013,3.7412445855475904,9.131484985351562,-1.6376339197158813,-2.209848165512085
141052,,,,0.8427590131759644
141053,4.34849015264678,9.47146224975586,-0.9744400978088379,
141092,,,,0.12928688526153564
141093,5.582324416068137,12.806585311889648,-1.5466543436050415,
141132,,,-2.7772738933563232,0.6033388376235962
141133,5.803693108593051,11.556811332702637,,
141172,,,,-1.3623007535934448
141173,3.1527300554231035,12.023680686950684,3.3255462646484375,
141212,,,,-8.98543930053711
141213,6.992446366105451,7.271190643310547,3.227383852005005,
141252,,,,-8.810662269592285
141253,6.26297724993498,10.99656867980957,-0.8403648138046265,
141292,14.01667718754637,20.278888702392578,8.429984092712402,-6.234501361846924
141331,1.374758569155505,9.105149269104004,1.9321208000183105,-2.698265314102173
141371,,,,-0.33039984107017517
141372,6.750846809675441,5.954379558563232,-4.4939165115356445,
141411,,,,-0.6009446382522583
141412,8.020883958004468,2.5043349266052246,-2.628833532333374,
141451,,,0.033518824726343155,-1.1444283723831177
141452,5.749086722117499,3.936067581176758,,
141490,,,,0.524330198764801
141491,,,3.6391866207122803,
141492,4.377492576083037,7.103596210479736,,
141530,,,,-0.22505496442317963
141531,4.015428115233592,8.257601737976074,4.8602294921875,
141570,,,,-5.288791656494141
141571,6.254388412959817,12.006921768188477,6.627150535583496,
141610,,,,3.8139634132385254
141611,8.97550173236328,16.266206741333008,3.404554843902588,
141650,12.795078547401719,12.401965141296387,3.2800562381744385,-14.15212631225586
141689,,,,0.7709329724311829
141690,,,4.091690540313721,
141691,6.748105101051256,15.27979564666748,,
141729,5.611280537346072,4.316745758056641,1.7142484188079834,-4.072536945343018
141768,,,,-2.7222073078155518
141769,8.357498329064295,7.857769966125488,-5.540182590484619,
141808,,,,-2.406172752380371
141809,6.564066672647299,5.863399982452393,7.905653953552246,
141852,8.106077255020178,2.0661959648132324,6.299144744873047,-1.7381904125213623
141869,6.262267014363064,2.9328970909118652,3.529053211212158,-1.6855180263519287
141888,3.7571023440520808,5.3797712326049805,2.094926595687866,-3.134010076522827
141908,,,0.22026655077934265,-3.1938650608062744
141909,2.5641321706285245,9.124302864074707,,
141928,5.540465356169555,9.023746490478516,-2.7676970958709717,-1.015141487121582
141948,5.93994122562808,9.306262016296387,-2.6384103298187256,0.7469909191131592
141967,,,,0.5746083855628967
141968,4.257368096073999,10.505757331848145,-0.6105214357376099,
141987,,,,-1.2042834758758545
141988,3.534116138857716,12.279860496520996,0.6607996821403503,
142008,4.667923599088647,12.859257698059082,-0.5937620401382446,-0.8523358106613159
142027,5.655136251654797,11.975796699523926,-2.2888567447662354,0.586579442024231
142047,,,,1.45806884765625
142048,5.388435073743147,11.027692794799805,-2.099714994430542,
142068,4.139511707276912,12.18409252166748,-0.5650315880775452,0.395043283700943
142088,,,4.376600742340088,-6.811503887176514
142089,6.6570975610255045,13.120224952697754,,
142108,8.535187982635518,,4.005499362945557,-10.232817649841309
142109,,11.329362869262695,,
142128,,,,-8.564059257507324
142129,6.358221975862115,8.109161376953125,-0.5817909836769104,
142148,4.334227078532703,9.763554573059082,1.0007762908935547,-7.275979042053223
142167,,,,-9.730035781860352
142168,8.901930661762982,13.345280647277832,5.197812080383301,
142187,,,,-8.35336971282959
142188,12.146033222697648,16.850391387939453,8.310274124145508,
142206,,,,-3.9647979736328125
142207,10.334605066941283,13.668497085571289,9.526528358459473,
142226,,,4.134786128997803,-3.337517261505127
142227,5.0814654352704824,12.586318016052246,,
142246,1.863484241616508,10.84094524383545,-0.1843535304069519,-2.1068975925445557
142266,,,,-1.3718775510787964
142267,4.1096734348323585,8.271966934204102,-3.07415509223938,
142286,,,,-0.9050082564353943
142287,6.468152889390997,6.071695327758789,-4.51067590713501,
142306,6.089306585614122,4.6471452713012695,-2.3487119674682617,-0.5817909836769104
142326,,,,-0.35913026332855225
142327,6.262777770805391,,-0.768538773059845,
142328,,3.821146011352539,,
142346,,,,-0.47884035110473633
142347,7.072666648824234,2.8634653091430664,-0.6584054827690125,
142367,8.21475505554235,1.6974890232086182,-0.7781155705451965,-0.4357447028160095
142386,,,,0.0694318488240242
