relative_time,LinearAccelerometerSensor,AccX,AccY,AccZ
0,4.863141823114316,11.956643104553223,2.38462495803833,-0.9361328482627869
20,4.650285420835936,,1.381454348564148,
21,,13.03403377532959,,-1.0079588890075684
40,4.05608977249687,13.227964401245117,-0.3016694188117981,-0.2585737705230713
60,5.294373047969829,,,
61,,14.875175476074219,-1.1252747774124146,-1.2186486721038818
79,4.37493438671502,,,
80,,13.88158130645752,-0.31364041566848755,-2.0925323963165283
99,2.414054994046786,,0.6368576288223267,
100,,11.453861236572266,,-1.501164436340332
119,1.3770926763282045,,0.4620809257030487,-1.455674648284912
120,,9.263166427612305,,
139,3.2497928259914097,,,
140,,6.682217121124268,-0.17717093229293823,-1.8531121015548706
159,4.49762239163476,,-0.9313444495201111,
160,,5.329493045806885,,-1.1324573755264282
179,4.557290643601076,5.525817394256592,-1.8722656965255737,-0.9361328482627869
198,4.153390230388157,,,
199,,6.162675380706787,-2.185906171798706,-0.950498104095459
219,3.5863241681167586,6.584054470062256,-1.7573440074920654,-0.646434485912323
239,2.4379619258508107,,,
240,,7.560888767242432,-1.1085153818130493,-0.16998831927776337
258,1.0684994007799737,,,
259,,8.767566680908203,-0.15562310814857483,-0.5626373887062073
278,1.062774061872393,,,
279,,8.887276649475098,0.4141969084739685,-0.009576806798577309
298,1.3259498736226512,,,
299,,8.482656478881836,0.011971008032560349,-0.16519992053508759
318,0.6763431440150717,,,
319,,9.983820915222168,0.33997663855552673,-0.8690952062606812
338,1.8541454856891464,,,
339,,10.805032730102539,1.6089035272598267,-0.6368576288223267
358,2.1301627554521687,,,
359,,10.280701637268066,2.013523578643799,0.6607996821403503
378,1.8846089510456026,,1.9704279899597168,
379,,9.603142738342285,,0.5219359993934631
397,2.1148367919356468,,,
398,,8.456320762634277,1.9608511924743652,0.009576806798577309
417,1.860436657338604,,,
418,,8.418013572692871,1.6160861253738403,0.3878606855869293
437,1.6590884376117925,,,
438,,,1.455674648284912,1.3934253454208374
439,,10.122684478759766,,
457,3.129782564697221,,,
458,,11.815385818481445,2.0422539710998535,1.9345149993896484
477,2.838572557380414,,,
478,,11.920730590820312,1.8555063009262085,1.4748282432556152
497,1.8127554351763038,,,
498,,10.467450141906738,1.3263877630233765,1.6543933153152466
517,1.620953363061861,,,
518,,9.526528358459473,1.9919757843017578,1.213860273361206
537,4.110091578444831,10.979808807373047,4.486733913421631,-1.434126853942871
557,5.7668975004768255,14.767436027526855,3.4955344200134277,-1.1994950771331787
577,7.573901952342095,,1.8076223134994507,-2.4444799423217773
578,,16.855180740356445,,
597,5.312046525337811,,3.627215623855591,-2.9305028915405273
598,,13.390769958496094,,
616,4.28502738988395,,,
617,,10.002974510192871,3.6966474056243896,-3.442862033843994
636,5.176491143828393,,,
637,,7.38132381439209,0.9481038451194763,-4.563348293304443
657,4.100897453523607,7.613561630249023,-1.8555063009262085,-1.7070658206939697
677,4.612999890538943,7.206547260284424,-2.5665841102600098,0.6177040338516235
716,4.029385394234887,,-0.7972691655158997,-2.9257144927978516
717,,12.358869552612305,,
755,1.6666093419071262,9.883264541625977,2.4013843536376953,-0.27054479718208313
910,4.495201519447093,,,
911,,5.530605792999268,1.5322890281677246,-1.115697979927063
915,3.2406084374765096,8.62391471862793,-2.557007312774658,0.8930372595787048
954,3.7015248636093165,11.389217376708984,-1.3551181554794312,2.6360161304473877
994,2.8017615567245806,12.148179054260254,1.5179238319396973,-0.9528923034667969
1033,6.411936548177279,,,
1034,,10.398017883300781,-4.316745758056641,4.793191909790039
1073,5.329941604895562,11.78904914855957,-4.960785865783691,-0.4572925269603729
1113,6.071701146266202,13.110648155212402,-5.082890033721924,-1.8938134908676147
1153,3.299016898554514,11.456254959106445,-1.3239935636520386,-2.691082715988159
1193,4.507531327547624,7.709329605102539,1.7932571172714233,-2.7509377002716064
1233,5.290264134005404,14.865598678588867,0.363918662071228,0.2777273952960968
1274,2.6922944351540607,,-0.9911994934082031,-0.6512228846549988
1275,,12.397176742553711,,
1313,4.02992309496933,,-1.7405846118927002,
1314,,6.088454723358154,,-0.10534487664699554
1353,6.489241279253769,3.4763808250427246,-1.1659762859344482,-0.3495534360408783
1393,7.078747989277703,2.762908697128296,0.27054479718208313,-0.2537853717803955
1432,3.0651353668638692,,,
1433,,7.343016624450684,0.7134721279144287,2.161964178085327
1472,3.693497258300094,,2.300827741622925,3.184288263320923
1473,,10.20887565612793,,
1512,2.7575769945256843,,1.2090718746185303,-2.0614075660705566
1513,,11.32457447052002,,
1552,7.834891008837412,,,
1553,,16.350004196166992,4.338293552398682,2.3032219409942627
1592,3.668980403079465,,4.019864559173584,1.1683704853057861
1593,,11.429919242858887,,
1631,3.389326277545675,,,
1632,,13.06755256652832,0.7948749661445618,0.646434485912323
1672,4.796225239737284,10.809821128845215,4.5609540939331055,-3.4763808250427246
1712,5.032278583656739,9.042900085449219,0.05027823522686958,-4.671087741851807
1751,7.101726870003718,,-4.685452938079834,1.9728221893310547
1752,,6.97430944442749,,
1790,4.392362094857261,,,
1791,,12.926295280456543,-1.237802267074585,-2.298433542251587
1823,2.624334977697168,,,
1824,,10.948684692382812,1.6519991159439087,-2.3965959548950195
1830,3.699411324762397,,,
1831,,7.311892032623291,3.1938650608062744,-0.9361328482627869
1850,6.007873138002664,,,
1851,,4.721365928649902,3.4308910369873047,-1.4437036514282227
1869,6.3841761949743026,,,
1870,,3.7612907886505127,2.4468741416931152,-1.0462661981582642
1889,5.482062827795792,4.32871675491333,0.9385270476341248,-0.42377370595932007
1909,5.7257860601912185,4.213795185089111,-0.7709329724311829,0.3016694188117981
1929,4.922569007990415,5.5760955810546875,-2.1116859912872314,0.5913678407669067
1949,4.094835443229545,7.673416614532471,-3.1196448802948,1.1683704853057861
1970,3.7117597773200854,,,
1971,,8.995016098022461,-3.313575267791748,1.400607943534851
1989,3.8254936049366406,,,
1990,,9.892841339111328,-2.8634653091430664,2.43011474609375
2010,3.5810020906878486,,-1.3694833517074585,
2011,,11.348516464233398,,2.7102363109588623
2030,3.0560580639940285,,0.2537853717803955,
2031,,12.22000503540039,,1.6208745241165161
2050,2.022799240250357,,0.7589619159698486,-1.1276689767837524
2051,,10.979808807373047,,
2069,2.4747815392150474,11.408370971679688,-2.027888774871826,-0.1412578970193863
2089,7.57307388443306,,-4.924872875213623,5.841852188110352
2090,,12.325350761413574,,
2109,6.594626418169178,,-4.5154643058776855,
2110,,12.397176742553711,,4.982333660125732
2129,2.6871575425659984,,,
2130,,10.611102104187012,-3.268085241317749,0.7996633648872375
2149,3.441818022151581,11.93748950958252,-2.691082715988159,-1.3958195447921753
2168,5.190563354493587,,,
2169,,12.816162109375,-5.178658485412598,-0.31364041566848755
2189,6.419254854400329,,-3.4356794357299805,
2190,,14.48970890045166,,-3.292027235031128
2209,4.102899475175276,,-1.5155296325683594,
2210,,13.00051498413086,,-2.1499931812286377
2228,4.3879038567803255,,,
2229,,8.899248123168945,0.038307227194309235,-3.6727054119110107
2248,5.075023091080473,,,
2249,,6.210559368133545,0.7541735172271729,-2.5091233253479004
2268,3.2035988061825282,,,
2269,,12.081141471862793,0.18914192914962769,-0.8547300100326538
2289,6.368536271541786,15.507244110107422,0.35673606395721436,1.9249382019042969
2309,5.5973083430570325,14.848838806152344,0.586579442024231,0.8834604024887085
2328,2.84913929440684,12.351686477661133,-0.31364041566848755,-0.5195417404174805
2348,1.5635306964297115,,,
2349,,8.884882926940918,-1.3623007535934448,-0.9385270476341248
2368,4.179099467616139,6.01423454284668,-2.492363929748535,0.22744916379451752
2387,5.947157865403052,,,
2388,,4.173093795776367,-2.4444799423217773,0.002394201699644327
2408,7.3684321754773165,2.451662540435791,-1.1252747774124146,0.2082955539226532
2427,8.354852383472096,,,
2428,,1.5322890281677246,-0.4884171485900879,-0.5817909836769104
2447,7.657772488928324,,,
2448,,2.2409727573394775,0.12210428714752197,-0.5626373887062073
2468,5.069436678016787,4.76924991607666,0.6416460275650024,1.01753568649292
2487,3.7010489652250165,,1.1252747774124146,3.2393548488616943
2488,,7.86734676361084,,
2507,4.4273561401086114,,2.698265314102173,3.6176388263702393
2508,,10.132261276245117,,
2527,4.064964133992394,,2.9305028915405273,
2528,,11.068394660949707,,2.7078421115875244
2547,1.7795903019406547,,1.577778935432434,-0.3495534360408783
2548,,10.790667533874512,,
2567,5.079444314796564,11.91354751586914,0.4620809257030487,-4.244919776916504
2586,4.231188711964968,,,
2587,,13.182474136352539,2.631227731704712,0.5315127968788147
2607,9.165796920667507,17.07065773010254,2.1332337856292725,5.765237808227539
2626,3.9493464931274795,,,
2627,,12.981361389160156,1.4053963422775269,2.497152328491211
2646,5.703366794424855,,,
2647,,12.121843338012695,5.659893035888672,-0.6057330369949341
2666,3.273598459879568,,2.5067291259765625,0.7374141216278076
2667,,12.509703636169434,,
2686,6.467784569978529,16.03875732421875,-0.43095630407333374,1.01753568649292
2706,6.527780880036755,,,
2707,,14.9182710647583,3.3279404640197754,-3.0885202884674072
2726,7.314186358202772,,5.439626216888428,
2727,,10.1753568649292,,-5.743690013885498
2745,7.994246082556303,,,
2746,,8.877699851989746,5.123591423034668,-6.617573261260986
2766,3.465355389137233,,0.24660277366638184,
2767,,7.73087739944458,,-2.2385785579681396
2785,5.553804609093331,,,
2786,,7.4770917892456055,-3.5218706130981445,1.256955862045288
2805,6.755374605421251,,,
2806,,7.826645374298096,-4.99669885635376,0.6488286852836609
2826,4.534637868400759,11.96861457824707,-2.6599581241607666,-0.44771572947502136
2845,3.54623057691212,,,
2846,,12.567164421081543,-0.3998316824436188,-2.0183119773864746
2865,2.042738950799162,,,
2866,,11.018115997314453,1.9728221893310547,-1.1851298809051514
2885,3.543271422995162,7.0341644287109375,2.535459518432617,-0.689530074596405
2904,6.50461092044085,,,
2905,,3.6559460163116455,2.145204782485962,-0.8571242094039917
2924,6.665197814615781,,,
2925,,3.4835634231567383,1.9728221893310547,-0.8906430602073669
2944,6.306724398928732,,,
2945,,3.529053211212158,0.5602431893348694,-0.043095629662275314
2964,5.350328823929416,,,
2965,,4.546588897705078,-1.070208191871643,0.33758243918418884
2984,3.7645768729011793,,,
2985,,6.7492547035217285,-2.3367409706115723,0.6560112833976746
3004,3.436263399510851,,-3.0526070594787598,
3005,,8.83699893951416,,1.5921441316604614
3024,4.5174508280946375,9.57201862335205,-3.957615375518799,2.3367409706115723
3044,4.674031350053109,,-4.031835556030273,
3045,,9.947908401489258,,2.454056739807129
3063,3.8367778533503176,,,
3064,,11.15697956085205,-2.5019407272338867,2.4229321479797363
3084,1.592400671527628,,,
3085,,11.18092155456543,-0.3711012601852417,0.42856210470199585
3104,2.027303294695108,,0.49799394607543945,-1.6424223184585571
3105,,10.6709566116333,,
3124,3.3170974783916654,11.200075149536133,-3.1435868740081787,1.3024457693099976
3143,9.595402777141063,,,
3144,,12.112266540527344,-6.696582317352295,7.043741226196289
3164,9.563665181896832,,,
3165,,13.52005672454834,-7.680599212646484,5.4252610206604
3183,4.502303063948347,,,
3184,,12.48815631866455,-4.446032524108887,-1.115697979927063
3203,3.5988501142838065,,,
3204,,12.157755851745605,-3.3446998596191406,-1.556231141090393
3223,6.965969471823218,,-5.468356609344482,-3.1076738834381104
3224,,14.374787330627441,,
3243,6.289367895826475,,,
3244,,15.210363388061523,-2.0805611610412598,-3.0334534645080566
3263,4.422186850614529,13.115436553955078,-0.7565677165985107,-2.698265314102173
3283,7.758274951992414,7.675810813903809,0.9983820915222168,-6.84981107711792
3303,5.064212085712077,,,
3304,,7.69735860824585,0.9241618514060974,-3.6152446269989014
3322,3.9613522043522296,,,
3323,,12.69405746459961,0.1628057211637497,-1.479616641998291
3342,5.5696697533057264,,,
3343,,14.413094520568848,0.5171475410461426,1.98958158493042
3363,3.6314223388115883,,0.3471592366695404,0.1149216815829277
3364,,12.804190635681152,,
3382,1.549078941481133,,,
3383,,,-0.7493851184844971,
3384,,10.187328338623047,,-1.3766659498214722
3402,2.6306403280596937,,,
3403,,7.6997528076171875,-1.41257905960083,-1.4101848602294922
3422,3.9368558084226346,,,
3423,,5.882553577423096,-1.1276689767837524,-0.028730420395731926
3442,5.8834129320907085,,,
3443,,3.8977603912353516,-0.507570743560791,0.4572925269603729
3462,7.610268041073351,,-0.2513911724090576,
3463,,2.4396915435791016,,-1.3910311460494995
3481,7.666950082377857,,,
3482,,,0.14604631066322327,-1.5275006294250488
3483,,2.432508945465088,,
3502,6.672573651578691,3.2393548488616943,0.5530605912208557,-0.5817909836769104
3521,4.132732657398649,,,
3522,,6.732495307922363,1.2234370708465576,2.6671407222747803
3541,5.2134172981765765,,,
3542,,9.636661529541016,2.0901381969451904,4.671087741851807
3561,4.947004995849012,,,
3562,,11.027692794799805,2.875436305999756,3.6511576175689697
3581,2.8386407584063265,,,
3582,,10.721235275268555,2.5546131134033203,1.0893617868423462
3602,2.0509992211171593,9.871294021606445,1.6065093278884888,-1.41257905960083
3621,2.3674643578107255,,0.9911994934082031,
3622,,10.137049674987793,,-1.8531121015548706
3641,5.242640104809283,,3.6128504276275635,2.5258827209472656
3642,,13.278243064880371,,
3661,6.221042536364609,14.985308647155762,2.2218191623687744,3.5170822143554688
3681,5.849605136162905,,,
3682,,13.543998718261719,4.479551315307617,-1.2880805730819702
3700,7.417341080195191,,,
3701,,16.385915756225586,3.0142998695373535,-1.9991583824157715
3720,8.393706425420914,,,
3721,,18.133684158325195,1.1013327836990356,0.7661445140838623
3740,4.887550435696251,,,
3741,,12.737153053283691,4.8482584953308105,-1.2234370708465576
3760,4.867718271182356,,,
3761,,10.472238540649414,4.321534156799316,-3.845088005065918
3780,6.23651744006809,,,
3781,,8.918401718139648,2.8778305053710938,-5.918466567993164
3800,4.860758789858184,,-2.2625205516815186,
3801,,7.3454108238220215,,-1.5945383310317993
3820,8.098613912407856,,-5.825092792510986,
3821,,6.610390663146973,,1.292868971824646
3840,8.042972070027242,9.660603523254395,-6.4380083084106445,-1.7836803197860718
3860,5.532939932906145,,-2.5450363159179688,
3861,,13.51766300201416,,-1.9129672050476074
3880,3.369284983320367,,,
3881,,12.653355598449707,1.1204863786697388,-1.9297266006469727
3900,2.7372580016309525,9.775525093078613,3.31118106842041,0.2585737705230713
3920,4.839862863473659,5.971138954162598,3.3231520652770996,-0.24420857429504395
3940,6.428918247858381,,3.0789434909820557,-1.5705963373184204
3941,,4.314351558685303,,
3960,6.071023828174752,4.225766181945801,2.343923568725586,-0.689530074596405
3979,5.543424838915213,,,
3980,,4.2951979637146,0.3902548849582672,0.3878606855869293
3999,4.803906583514585,,,
4000,,5.1810526847839355,-1.3862427473068237,0.2082955539226532
4019,4.241200031826009,,-2.9233202934265137,0.3208230137825012
4020,,6.528987884521484,,
4039,3.606720976593966,,,
4040,,8.006210327148438,-3.490746021270752,0.35673606395721436
4058,3.333373037737574,,,
4059,,8.279149055480957,-3.114856481552124,1.072602391242981
4078,3.684501333877585,,-2.7772738933563232,
4079,,8.89685344696045,,2.3295583724975586
4098,4.317362600856049,10.76193618774414,-2.5665841102600098,3.1962592601776123
4118,3.2817604757772214,11.829751014709473,-1.4532804489135742,1.9847931861877441
4138,2.802297865207748,,,
4139,,12.090718269348145,1.0342950820922852,-0.4620809257030487
4158,1.941309291329607,11.03248119354248,-1.8555063009262085,-0.4405331015586853
4177,7.301259326742727,,,
4178,,11.353304862976074,-5.796362400054932,4.884171485900879
4198,10.048750493201101,13.225569725036621,-7.228095054626465,6.876147270202637
4218,5.355971609779651,11.707646369934082,-5.937620162963867,0.05027823522686958
4237,3.1079642771333478,,,
4238,,11.887211799621582,-2.0661959648132324,-1.8938134908676147
4257,5.323821984310697,,,
4258,,12.344504356384277,-5.4228668212890625,-1.9776105880737305
4277,6.255228525891985,,-2.985569477081299,
4278,,14.800954818725586,,-3.2800562381744385
4297,3.897895607142984,,-1.3407529592514038,
4298,,13.529633522033691,,-0.8092401623725891
4317,5.091608264211469,,,
4318,,9.21288776397705,0.12689268589019775,-4.802768707275391
4337,5.474462871244785,,,
4338,,7.515398979187012,0.8547300100326538,-4.23773717880249
4357,3.811831431317341,,,
4358,,12.627019882202148,0.45250412821769714,-0.9385270476341248
4377,5.692285892579652,,,
4378,,14.891934394836426,0.12449848651885986,1.2449848651885986
4397,5.185365352578512,,,
4398,,14.362815856933594,0.0454898327589035,1.335964560508728
4417,2.081653553555156,,,
4418,,11.635820388793945,-0.5530605912208557,-0.44771572947502136
4437,0.816819300952561,,,
4438,,9.172186851501465,-1.2832920551300049,-0.5722141861915588
4456,2.962136541677397,,,
4457,,7.319074630737305,-2.2649147510528564,-0.586579442024231
4477,4.744024031090943,5.3797712326049805,-2.363077163696289,-0.12210428714752197
4497,6.76764351068702,3.3063924312591553,-1.889025092124939,-0.9481038451194763
4516,7.741580696846802,,-0.667982280254364,
4517,,2.4588451385498047,,-1.922544002532959
4537,8.189109585791698,,0.06464344263076782,-1.5514427423477173
4538,,1.8938134908676147,,
4556,6.907627158276833,,,
4557,,2.999934673309326,0.8068459630012512,-0.31364041566848755
4576,4.184988606755325,,1.721431016921997,2.499546527862549
4577,,6.672640323638916,,
4596,4.4907812421850535,,2.229001760482788,3.950432777404785
4597,,9.682151794433594,,
4616,4.106017855464651,10.76193618774414,2.8586769104003906,2.7988216876983643
4636,2.5666994249639656,10.462661743164062,2.671929121017456,0.10055647045373917
4656,2.468941693167142,10.433931350708008,2.1930887699127197,-1.015141487121582
4676,4.035233296547841,13.565546989440918,1.4221558570861816,-0.22266076505184174
4696,5.884902076392645,,1.6687586307525635,
4697,,15.330073356628418,,1.8411411046981812
4716,5.2278430778342955,,0.8906430602073669,
4717,,12.555193901062012,,4.932055473327637
4736,2.988127900221725,10.038887977600098,1.3886369466781616,3.3638534545898438
4755,3.2853058952149765,,3.8163576126098633,
4756,,9.715670585632324,,0.49799394607543945
4775,3.927651334745005,,,
4776,,13.596671104431152,0.9097966551780701,-0.3423708379268646
4795,10.77329869834444,,2.2864625453948975,
4796,,19.584569931030273,,-3.758896589279175
4815,4.821497840989257,,,
4816,,12.342109680175781,4.570530891418457,-1.41257905960083
4835,7.8002325561285355,,,
4836,,9.23443603515625,4.335899353027344,-6.6630635261535645
4855,6.781871573795616,7.99184513092041,1.7142484188079834,-6.074089527130127
4874,2.56618736878162,,,
4875,,8.65743350982666,-1.1994950771331787,-0.0071826050989329815
4894,5.135782575693302,,,
4895,,7.836222171783447,-2.918531894683838,2.5498247146606445
4914,3.248333870692149,,,
4915,,10.120290756225586,-2.0398597717285156,0.47165772318840027
4934,4.780305656971348,,,
4935,,14.207192420959473,0.15322890877723694,-2.0015525817871094
4954,5.023440537518522,,,
4955,,13.843274116516113,1.656787633895874,-3.0573954582214355
4974,2.187464904503626,,,
4975,,9.279925346374512,2.3965959548950195,-0.4405331015586853
4994,4.655592289498731,,,
4995,,5.4659624099731445,1.4053963422775269,-0.9145850539207458
5014,5.823803155758399,,0.5530605912208557,
5015,,4.110844135284424,,-0.8403648138046265
5033,6.101242076553674,,,
5034,,3.818751811981201,0.30885201692581177,-0.8259995579719543
5053,7.229084758312846,,,
5054,,,-0.3926490843296051,-0.13407529890537262
5055,,2.5761611461639404,,
5073,5.7596934337625765,,,
5074,,4.0749311447143555,-1.2114660739898682,0.33518823981285095
5093,2.794612715474577,,,
5094,,,-1.9369091987609863,1.1875240802764893
5095,,7.580042362213135,,
5113,2.593840264277921,,,
5114,,9.57201862335205,-2.2697031497955322,1.968033790588379
5133,3.0975685059097096,,,
5134,,9.682151794433594,-2.250549554824829,2.5115175247192383
5153,3.131263254712465,,,
5154,,10.302249908447266,-1.8531121015548706,2.6815059185028076
5173,2.436197372972002,11.113883972167969,-0.9433154463768005,1.9345149993896484
5193,2.0141734729673417,,,
5194,,11.51850414276123,0.2298433631658554,0.11013327538967133
5212,0.5732273704264514,,,
5213,,10.290278434753418,-0.7206547260284424,0.6488286852836609
5232,6.187677554270665,,,
5233,,11.166556358337402,-5.913678169250488,3.56017804145813
5272,7.424189606185563,,,
5273,,13.682862281799316,-6.959944248199463,-1.6304513216018677
5311,6.267881220273329,,,
5312,,15.655684471130371,-2.382230758666992,1.9536685943603516
5351,5.7822277994900295,,,
5352,,9.761159896850586,-2.0877439975738525,-5.51624059677124
5391,5.490752335159062,9.354146003723145,3.220201253890991,-1.886630892753601
5431,4.719332021225303,14.056358337402344,-0.4644751250743866,1.5945383310317993
5471,0.9158255048341458,10.273519515991211,-1.3263877630233765,-0.5315127968788147
5511,4.025380200738565,5.801150798797607,-1.2306196689605713,1.161187767982483
5551,5.956470580684878,3.88818359375,-1.1348515748977661,0.08379705995321274
5590,6.487550403788723,,,
5591,,3.512293815612793,1.0582371950149536,-0.395043283700943
5630,3.8173557064863304,,,
5631,,6.495469093322754,1.5514427423477173,1.900996208190918
5671,4.031317658558922,,2.518700122833252,
5672,,9.607931137084961,,3.5865142345428467
5710,1.7669489125248234,,,
5711,,11.245565414428711,0.35673606395721436,-0.35434186458587646
5750,9.431289347167755,,1.094150185585022,3.818751811981201
5751,,18.641254425048828,,
5790,5.460680080999205,,4.924872875213623,-0.7589619159698486
5791,,12.09311294555664,,
13531,4.400310652776959,,,
13532,,13.70201587677002,0.38067805767059326,2.451662540435791
13556,5.863576293272007,,,
13557,,5.085284233093262,-2.7293899059295654,0.6751648783683777
13596,7.3599280536286384,3.047818660736084,-0.44771572947502136,-1.9153614044189453
13635,6.662878613333401,,,
13636,,3.045424461364746,1.2521674633026123,0.19393034279346466
13675,3.3461269593444536,7.462726593017578,0.9864110946655273,2.806004285812378
13715,2.8875339786792718,10.630255699157715,2.5019407272338867,2.7102363109588623
13755,4.720291391203629,13.204022407531738,0.8834604024887085,-2.671929121017456
13795,8.806439419205734,14.97812557220459,1.1540051698684692,7.692570209503174
13834,6.242703260138241,,,
13835,,12.610260009765625,4.972756862640381,-3.643975019454956
13875,11.963091356734274,21.595699310302734,1.161187767982483,-1.0678139925003052
13915,6.540875073139076,9.239224433898926,5.540182590484619,-5.322310447692871
13954,4.5768418320273545,7.15387487411499,-1.9153614044189453,0.2561795711517334
13994,5.476268896485209,11.094730377197266,-3.4955344200134277,-0.9600749015808105
14033,3.4561458854790645,,,
14034,,12.416330337524414,1.173158884048462,-2.185906171798706
14073,5.025261389163647,,1.5083470344543457,-0.9816226959228516
14074,,5.018246650695801,,
14113,7.116240889642091,2.8610711097717285,0.2513911724090576,-1.2258312702178955
14153,4.336861836652162,6.31829833984375,-2.4372973442077637,1.381454348564148
14193,4.048725662370289,8.746018409729004,-3.531447410583496,2.403778553009033
14233,4.817070710198344,9.952696800231934,-3.0573954582214355,4.1611223220825195
14273,1.6694689398541367,10.316615104675293,0.4884171485900879,-0.8355764150619507
14313,9.203244375286902,10.63743782043457,-7.5632829666137695,6.825869083404541
14352,7.852409780154672,,-7.177816867828369,
14353,,14.652514457702637,,0.12689268589019775
14392,6.819028473507775,,-3.313575267791748,
14393,,15.591041564941406,,-2.10210919380188
14432,4.383418022662379,11.432312965393066,0.6536170840263367,-2.7940332889556885
14472,4.864112825804241,13.46259593963623,0.7613561153411865,-0.9528923034667969
14512,4.423198811819545,14.034810066223145,-1.2976573705673218,0.8212111592292786
14551,1.8873595734962558,,,
14552,,8.123526573181152,-2.0590133666992188,0.031124621629714966
14591,7.044243365579149,,,
14592,,3.0573954582214355,-1.9632453918457031,-0.9672574996948242
14632,7.920971098425359,1.944091796875,0.33997663855552673,-0.12210428714752197
14672,6.208328486020374,,1.5394717454910278,
14673,,4.125209331512451,,-1.1085153818130493
14712,4.16444151908675,,,
14713,,8.753201484680176,2.252943754196167,3.8953661918640137
14752,3.530137283422152,,2.3918075561523438,3.0621838569641113
14753,,10.316615104675293,,
14792,2.895840285770843,11.355698585510254,-0.014365210197865963,-1.6687586307525635
14832,8.693674212522376,,2.1547815799713135,
14833,,16.8408145904541,,5.477933406829834
14872,8.81975673279505,,4.716577529907227,-4.438849925994873
14873,,15.653290748596191,,
14912,5.297899355343182,,3.069366693496704,-1.0773907899856567
14913,,14.391546249389648,,
14951,7.3867946643045155,,,
14952,,10.232817649841309,3.9384617805480957,-6.756437301635742
14991,5.730231094893024,,,
14992,,6.8162922859191895,-3.6990416049957275,0.36152446269989014
15031,4.4143096584564825,12.753912925720215,-2.075772762298584,-1.4077905416488647
15070,0.7113091891018721,10.450690269470215,0.43335050344467163,-0.08140286058187485
15110,6.599975250660124,3.885789394378662,2.207453966140747,-1.403002142906189
15149,6.5638208422436595,,,
15150,,3.732560396194458,0.6177040338516235,-1.8962076902389526
15189,3.675109996576766,,,
15190,,6.921637058258057,-2.920926094055176,0.21787235140800476
15229,4.738805328343991,,-4.225766181945801,
15230,,8.56884765625,,2.873042106628418
15269,5.421226792517824,10.24239444732666,-3.1196448802948,4.58968448638916
15309,1.304220470053952,,-1.0630255937576294,
15310,,11.018115997314453,,-0.10773907601833344
15348,7.0635434620475275,,,
15349,,10.893617630004883,-5.262455463409424,6.160281181335449
15388,5.87498116997481,,,
15389,,12.533645629882812,-5.726930618286133,-2.078166961669922
15429,7.6557392806381195,15.847221374511719,-4.520252704620361,-3.0597896575927734
15468,3.156961795125007,,,
15469,,12.279860496520996,-0.272938996553421,-0.21308395266532898
15508,2.977268085304046,,,
15509,,10.587160110473633,-0.545877993106842,-1.9105730056762695
15547,4.520988051525477,,,
15548,,13.558363914489746,-1.113303780555725,2.343923568725586
15587,1.0796538307692605,,,
15588,,8.777143478393555,-1.4460978507995605,-0.2801215946674347
15627,5.598037525723126,,,
15628,,4.271255970001221,-1.8148049116134644,-0.07422025501728058
15668,7.520097888552912,,0.13407529890537262,
15669,,2.499546527862549,,-1.0199298858642578
15707,5.790530122987412,,,
15708,,4.343081951141357,1.1994950771331787,-0.6751648783683777
15746,4.207704226364703,,,
15747,,8.798690795898438,2.3582887649536133,3.641580820083618
15786,4.353099613156748,,,
15787,,10.522516250610352,2.832340717315674,3.5721490383148193
15826,3.0220529308619253,10.843339920043945,-0.20111294090747833,-2.1595699787139893
15866,10.206929220572146,18.169597625732422,1.9512743949890137,6.390124320983887
15906,6.8696495737492524,12.466608047485352,6.5050458908081055,-1.1851298809051514
15945,7.501814304885868,,,
15946,,16.53675079345703,3.0334534645080566,-1.9488801956176758
15985,5.6472886052785185,,,
15986,,10.3549222946167,3.205836057662964,-4.917690277099609
16025,3.9086114688207085,,-2.671929121017456,
16026,,8.923190116882324,,0.30885201692581177
16065,4.762310138432214,11.638214111328125,-3.4620156288146973,0.05746084079146385
16104,2.7703157290436096,,,
16105,,11.168951034545898,1.8195933103561401,-1.6160861253738403
16145,7.481571444917197,,,
16146,,3.466804027557373,3.138798475265503,-1.824381709098816
16184,6.838579846459808,,,
16185,,3.35667085647583,0.569819986820221,-1.5682021379470825
16224,3.5609875865056817,,-2.2218191623687744,
16225,,6.675034523010254,,0.7493851184844971
16264,4.709513738521241,,-4.07014274597168,3.00711727142334
16265,,8.44434928894043,,
25543,3.9514204730555837,6.421248912811279,-2.935291290283203,0.47165772318840027
25582,3.9267844061910346,7.886500358581543,-4.098873138427734,1.5466543436050415
25622,4.039750238006508,10.515334129333496,-2.4803929328918457,3.2393548488616943
25662,2.30054932544197,11.319786071777344,0.1604115068912506,-1.2761094570159912
25701,9.950169578142328,,,
25702,,11.966219902038574,-7.084442615509033,7.903259754180908
25742,6.3472881503846725,12.859257698059082,-5.492298603057861,-3.7708675861358643
25782,6.538615914503052,15.899893760681152,-3.066972494125366,-1.2306196689605713
25823,7.099552688477271,,,
25824,,9.452308654785156,-0.3471592366695404,-6.8162922859191895
25862,3.864047415179815,10.366893768310547,0.768538773059845,-1.802833914756775
25901,5.353967902901347,14.441824913024902,-0.5985504388809204,1.37906014919281
25941,1.1550094031904827,10.390835762023926,-2.279279947280884,-0.8690952062606812
25980,4.895893026217987,,,
25981,,4.874594688415527,-0.811634361743927,0.47644615173339844
26020,7.502587190075016,,,
26021,,2.3511061668395996,-0.021547814831137657,-0.5003881454467773
26060,7.400447584483224,2.52109432220459,-0.304063618183136,-0.9816226959228516
26100,4.72932028275883,7.630321025848389,1.534683346748352,3.9049429893493652
26140,4.488840040144654,9.998186111450195,3.2968156337738037,2.8874073028564453
34529,10.373662287866098,18.004396438598633,4.003105163574219,5.231330871582031
34560,8.909048611145957,,,
34561,,13.742717742919922,7.058106422424316,-4.0078935623168945
34600,10.170350413179257,19.38585090637207,0.9552865028381348,-3.44765043258667
34640,8.27999649637489,10.429142951965332,3.2345664501190186,-8.212111473083496
34679,2.6034417224190887,,,
34680,,9.157821655273438,-1.1037269830703735,-1.0845733880996704
34719,5.311677577367916,,,
34720,,9.102754592895508,-3.9815573692321777,-1.8267759084701538
34759,2.8005816230232563,11.006145477294922,1.4963760375976562,-2.4875755310058594
34799,6.168153669449344,4.235342979431152,2.5019407272338867,-0.6799532771110535
34838,6.730498222512371,,,
34839,,3.5649664402008057,0.06703764945268631,-2.47560453414917
34878,3.980658858890912,,,
34879,,6.232107162475586,-2.382230758666992,-0.026336219161748886
34918,4.337824890105833,8.705317497253418,-3.711012601852417,2.4612393379211426
34958,5.767861529504255,10.398017883300781,-3.4979286193847656,4.309563159942627
34998,0.6720738449380771,9.646238327026367,-1.2234370708465576,0.12928688526153564
35037,6.397177622261377,,,
35038,,10.378864288330078,-5.264849662780762,4.9152960777282715
35078,8.884694566859725,,-7.41484260559082,-1.8938134908676147
35079,,15.909470558166504,,
35117,9.840787314575147,,,
35118,,19.01474952697754,-2.31758713722229,-2.9927520751953125
35157,8.708947362348463,,-1.8507179021835327,
35158,,7.4770917892456055,,-8.56645393371582
61533,5.040865789859611,,1.6711528301239014,-1.1803414821624756
61534,,12.22000503540039,,
61547,3.2634110680408055,10.362105369567871,-2.4588451385498047,-2.8562827110290527
61587,10.343605432335659,13.591882705688477,-6.7708024978637695,8.671798706054688
61627,3.8459202291990917,11.405977249145508,-3.8283286094665527,-2.784456491470337
61675,7.136508681740027,,-0.4668693244457245,
61676,,16.062698364257812,,-0.6392518281936646
61686,6.384046530991396,12.418724060058594,0.545877993106842,-4.424484729766846
61706,6.080306497678624,10.218452453613281,-0.090979665517807,-5.224148273468018
61726,5.130696550042991,,-0.5027823448181152,
61727,,13.424288749694824,,-1.9297266006469727
61746,6.352669594762867,15.081076622009277,0.011971008032560349,0.6512228846549988
61766,4.591099188342826,13.64216136932373,-0.730231523513794,0.3758896589279175
61786,2.1171380631984773,11.470620155334473,-1.4748282432556152,-0.5123591423034668
61806,0.8316170821255171,9.184157371520996,-1.7166426181793213,-0.8475474119186401
61825,3.0807423573864816,,,
61826,,6.730101108551025,-2.367865562438965,-0.6153098344802856
61845,4.416542531314309,,-1.7118542194366455,
61846,,5.305551052093506,,-0.16519992053508759
61866,6.2584308980692755,3.4979286193847656,-0.8643068075180054,-0.3519476354122162
61885,7.228869986332364,2.719813108444214,-0.47884035110473633,-1.4077905416488647
61905,7.749906231712858,2.322375535964966,-0.08140286058187485,-1.7525556087493896
61925,7.960458548291817,1.98958158493042,0.12689268589019775,-1.1516109704971313
61945,5.939450555943213,4.089296340942383,0.7924807667732239,1.0319008827209473
61965,4.987421617393945,6.92881965637207,1.8794482946395874,3.071760892868042
61984,5.63776018510766,,,
61985,,8.9064302444458,3.1890766620635986,3.8115692138671875
62004,5.602425948968167,,,
62005,,10.3549222946167,3.8762125968933105,3.2106244564056396
62024,3.838224952637396,,,
62025,,11.250353813171387,3.1268274784088135,0.1412578970193863
62044,6.608463017015804,,,
62045,,11.868058204650879,1.0319008827209473,-6.069301128387451
62064,5.613352435993906,12.787431716918945,4.393360137939453,0.28969839215278625
62084,10.766202559570898,18.088193893432617,2.7748796939849854,6.299144744873047
62104,6.110858083553731,14.518439292907715,1.8339585065841675,3.361459255218506
62124,6.306660888110061,13.326127052307129,4.3406877517700195,-3.5410242080688477
62144,3.6080716244509294,11.841721534729004,-0.5841852426528931,-2.96162748336792
62164,9.680939452557382,18.921375274658203,0.1364694982767105,-3.4093432426452637
62184,2.9439298991896483,11.504138946533203,2.911349296569824,-1.8171991109848022
62205,8.82640807073593,,,
62206,,12.435483932495117,4.675876140594482,-8.094796180725098
62223,6.0146607257799864,,,
62224,,10.747570991516113,2.10210919380188,-6.121973514556885
62243,4.362740260287719,8.860940933227539,-2.75812029838562,-1.01753568649292
62263,7.584740085561755,7.230489253997803,-5.738901615142822,-0.20111294090747833
62283,6.554814079435571,8.322244644165039,-4.9799394607543945,-1.5825673341751099
62303,2.8189255957877646,11.341333389282227,-0.9481038451194763,-1.5897499322891235
62323,2.582137620728766,10.778696060180664,1.9847931861877441,-1.8938134908676147
62343,3.354101113257336,8.33182144165039,2.9759926795959473,-1.0414776802062988
62363,5.749465254091707,5.0876784324646,3.1866824626922607,-0.6607996821403503
62383,6.284678268513091,3.8762125968933105,1.8842366933822632,-0.45250412821769714
62403,5.723237491813118,4.290409564971924,0.6129156351089478,-1.1779472827911377
62423,5.130651196052665,4.728548526763916,-0.9552865028381348,-0.5315127968788147
62443,3.955781066969263,,,
62444,,6.215347766876221,-2.1763293743133545,0.2968810200691223
62463,3.778166214912966,,,
62464,,7.024587631225586,-2.7509377002716064,1.3024457693099976
62483,3.723856137169436,,,
62484,,7.805097579956055,-2.8131868839263916,2.073378562927246
62504,4.027617954868716,8.542511940002441,-2.956839084625244,2.7246015071868896
62523,4.458971970115246,9.670180320739746,-2.784456491470337,3.4380736351013184
62543,3.338029192285443,10.319009780883789,-1.455674648284912,2.7006595134735107
62563,1.38864260185281,,,
62564,,9.940725326538086,0.5578489899635315,-0.45489832758903503
62583,3.1490234132721886,,-1.9512743949890137,
62584,,9.713275909423828,,-2.937685489654541
62604,6.738197180182075,9.646238327026367,-6.995857238769531,2.6408045291900635
62621,10.957120376197231,,-6.856993675231934,
62622,,10.156203269958496,,9.404424667358398
62641,9.552041711304039,,-8.054094314575195,
62642,,15.332468032836914,,3.5242648124694824
62661,8.043798239918237,13.314155578613281,-6.205770969390869,-5.207388877868652
62681,3.9059830231031496,12.775460243225098,-3.713406801223755,-1.0462661981582642
62701,9.696369663733005,19.294872283935547,-2.1763293743133545,0.40701428055763245
62721,6.265585730374913,15.51921558380127,-0.9911994934082031,-1.5155296325683594
62741,8.793249436740567,9.442731857299805,-0.6775590777397156,-8.374917984008789
62760,5.361132097395349,,,
62761,,8.628703117370605,0.5578489899635315,-3.8738183975219727
62780,4.501829199419617,,,
62781,,11.348516464233398,1.41257905960083,-0.7637503147125244
62800,4.851226745879995,,0.5961562395095825,1.1779472827911377
62801,,13.223176002502441,,
62821,3.224121500466145,12.533645629882812,-1.0749965906143188,0.6631938815116882
62840,1.8014811647157352,11.276689529418945,-2.2457611560821533,-0.42616790533065796
62860,1.192033996298853,9.57201862335205,-2.7485435009002686,0.37828385829925537
62880,2.074407249262067,7.771578788757324,-1.9919757843017578,0.09816227108240128
62900,4.059969304537188,5.710171222686768,-1.2665326595306396,0.2777273952960968
62920,5.9227410239324385,3.8570590019226074,-0.5650315880775452,-0.07182604819536209
62939,6.957333643326339,,,
62940,,3.1220390796661377,-0.11013327538967133,-1.6759412288665771
62959,7.655390477103934,,,
62960,,2.52109432220459,0.28969839215278625,-1.9273324012756348
62980,6.458498290221568,3.445256233215332,0.47644615173339844,-0.569819986820221
63000,4.61098439196971,5.858611583709717,1.3431471586227417,1.764526605606079
63020,5.207623893740056,7.790732383728027,2.5474305152893066,3.6367924213409424
63040,5.705151007322893,8.908824920654297,3.4356794357299805,3.9456443786621094
63060,4.623467474992072,9.526528358459473,3.2848446369171143,2.827552318572998
63079,1.4629864527608976,,,
63080,,10.096348762512207,1.137245774269104,0.6344634294509888
63099,4.968503550049599,,,
63100,,9.48343276977539,-1.4053963422775269,-4.786009311676025
63120,3.6499843544820663,12.231976509094238,2.425326347351074,1.01753568649292
63140,12.337785965253817,20.032285690307617,3.4596214294433594,6.1052141189575195
63159,4.998467782809173,,,
63160,,13.539210319519043,3.3710360527038574,-0.040701430290937424
63180,9.611347771329747,16.99883270263672,4.474762916564941,-5.061342239379883
63200,7.787491711754468,17.30768394470215,-1.0965443849563599,-1.45806884765625
63220,7.343380403349061,16.747440338134766,1.1683704853057861,1.7334020137786865
63240,5.4362295135371665,9.311050415039062,3.7445313930511475,-5.327098846435547
63259,6.6896256250569035,,,
63260,,10.283096313476562,4.443638324737549,-6.234501361846924
63280,5.057859389565339,,1.4724340438842773,
63281,,8.329427719116211,,-4.955997467041016
63300,6.045270524578038,,-3.890577793121338,
63301,,7.144298076629639,,1.3623007535934448
63319,8.432039881892413,,,
63320,,7.407660007476807,-6.797138690948486,-0.37828385829925537
63339,5.636482894732088,,,
63340,,10.266336441040039,-4.527435302734375,-0.9313444495201111
63359,2.8873498456481768,,,
63360,,11.523292541503906,-0.6440402865409851,-2.1739351749420166
63379,2.2330967374519086,,2.008735179901123,
63380,,10.362105369567871,,-1.6160861253738403
63399,4.123907233481535,,,
63400,,7.6566572189331055,3.6966474056243896,-0.40462008118629456
63419,5.908456218752578,5.099649429321289,3.5913026332855225,-0.48602294921875
63439,5.787874292913281,4.520252704620361,2.0661959648132324,-0.9265560507774353
63459,5.139873600455765,4.884171485900879,0.5937620401382446,-1.1563993692398071
63478,4.893571544915836,,,
63479,,4.987122058868408,-0.9145850539207458,-0.608127236366272
63498,4.336584094524943,,,
63499,,5.803544998168945,-2.1595699787139893,0.15083470940589905
63518,3.7049034773265217,,,
63519,,7.0317702293396,-2.75812029838562,1.01753568649292
63539,4.043558654503138,7.754819393157959,-3.2561142444610596,2.056619167327881
63558,4.802568169844232,,,
63559,,8.671798706054688,-3.1675288677215576,3.5673606395721436
63577,4.696710108783303,10.041281700134277,-1.9608511924743652,4.079719543457031
63596,3.0213813197013923,10.884040832519531,-0.031124621629714966,2.3535003662109375
63616,1.9959537583921247,,,
63617,,9.399636268615723,0.727837324142456,-1.2617442607879639
63636,3.529598018462731,10.170568466186523,-2.985569477081299,-2.5258827209472656
63656,9.238858085188976,11.219228744506836,-7.73087739944458,6.208165168762207
63676,11.088176003956944,13.797784805297852,-8.04691219329834,7.714118003845215
63696,7.307394217770535,14.255077362060547,-6.40927791595459,-2.5043349266052246
63715,10.103973785342221,,,
63716,,14.856021881103516,-6.464344501495361,-6.9695210456848145
63735,10.748746577090541,,,
63736,,20.0969295501709,0.07182604819536209,-1.1444283723831177
63755,8.857068496602905,,2.959233283996582,
63756,,16.309301376342773,,2.628833532333374
63775,8.789875830423192,8.33182144165039,1.4484920501708984,-7.484274387359619
63795,5.2359310740924085,8.219294548034668,0.21547815203666687,-3.6990416049957275
63815,4.012510761947698,11.705251693725586,0.9864110946655273,0.3256114423274994
63835,5.662153166871011,13.385981559753418,0.5147533416748047,3.8546648025512695
63855,2.9469218018780676,12.473791122436523,-1.7381904125213623,1.1085153818130493
63875,2.781892852211696,10.565611839294434,-4.206612586975098,-0.11971008777618408
63895,2.6086342496832717,,,
63896,,9.160215377807617,-3.77565598487854,-0.4357447028160095
63915,4.28998804441978,,,
63916,,5.87776517868042,-2.999934673309326,0.33758243918418884
63935,5.383047068319772,,,
63936,,4.395754337310791,-1.5131354331970215,0.730231523513794
63955,7.102940458224056,,,
63956,,2.7533318996429443,0.031124621629714966,-0.26575639843940735
63975,7.249126776362473,,,
63976,,2.7102363109588623,0.7589619159698486,-0.22744916379451752
63996,7.336974309386776,2.7509377002716064,0.5147533416748047,-1.213860273361206
64015,6.623735991040396,3.2393548488616943,0.11252748221158981,-0.3663128614425659
64036,3.8368878401289623,6.277596950531006,0.16759411990642548,1.6543933153152466
64056,4.2044060892538075,8.762778282165527,0.993593692779541,3.706224203109741
64075,4.695392931663424,,,
64076,,9.9000244140625,1.86508309841156,3.845088005065918
64096,3.748129060051917,,,
64097,,10.99656867980957,2.279279947280884,2.3127987384796143
64115,3.2464336488148384,,,
64116,,,1.965639591217041,-2.2649147510528564
64117,,11.219228744506836,,
64135,4.76660126238859,,,
64136,,11.81059741973877,2.8778305053710938,-3.045424461364746
64155,9.700898779689904,,,
64156,,16.59181785583496,5.305551052093506,4.572925090789795
64175,9.04635887452619,15.7107515335083,2.0829553604125977,6.718130111694336
64195,5.991013154462554,,,
64196,,12.773066520690918,5.372588634490967,-0.9409212470054626
64215,5.261142532073984,,,
64216,,13.283031463623047,3.469198226928711,-2.7078421115875244
64235,9.829626990504824,,0.17477671802043915,
64236,,17.295713424682617,,-6.469132900238037
64255,6.134911439189585,15.298949241638184,3.3901896476745605,-0.9289502501487732
64274,9.61586893123728,,,
64275,,10.986991882324219,3.5936968326568604,-9.308655738830566
64295,8.239290626879216,9.459490776062012,3.093308687210083,-7.953537940979004
64314,2.772367373046951,,,
64315,,8.908824920654297,-0.4213795065879822,-1.920149803161621
64334,6.236920824089945,,,
64335,,8.020575523376465,-4.529829502105713,0.9792284965515137
64354,7.566046017415337,,,
64355,,7.862558364868164,-5.995080947875977,-1.2545616626739502
64375,5.061783916550239,13.323732376098633,-2.650381326675415,-0.7158663272857666
64394,3.988277663211536,,,
64395,,12.986149787902832,0.14844051003456116,-2.765302896499634
64414,2.7353734400622343,8.542511940002441,2.1475989818573,-1.5059528350830078
64434,5.255211378033011,5.863399982452393,3.184288263320923,-1.0031704902648926
64454,6.675330667484846,,,
64455,,3.845088005065918,2.3247697353363037,-1.3718775510787964
64474,6.149701503549881,,1.359906554222107,-1.501164436340332
64475,,4.127603530883789,,
64494,5.884082672264468,3.950432777404785,-0.31842881441116333,-0.6775590777397156
64513,5.595993188926146,,,
64514,,4.405331134796143,-2.1523873805999756,-0.08858546614646912
64533,5.149528052176845,,,
64534,,5.22175407409668,-2.8179752826690674,0.9361328482627869
64553,4.131113319617544,,,
64554,,7.249642848968506,-3.536235809326172,1.4867992401123047
64573,4.433379933583185,,,
64574,,9.440337181091309,-4.067748546600342,2.585737943649292
64593,4.714917780461677,,,
64594,,11.470620155334473,-3.1076738834381104,3.155557870864868
64613,3.9532793942181725,,,
64614,,12.445060729980469,-1.8531121015548706,2.073378562927246
64633,2.5717019265065706,,,
64634,,12.251130104064941,-0.9720458984375,-1.070208191871643
64653,4.202322844357393,,,
64654,,12.739546775817871,-3.7229835987091064,0.8451532125473022
64673,8.837020200576132,,-4.862623691558838,
64674,,13.029245376586914,,7.15387487411499
64692,9.665338183790118,,,
64693,,14.396334648132324,-6.698976516723633,6.378153324127197
64712,7.614347928257454,,,
64713,,13.208810806274414,-8.056488990783691,-2.0398597717285156
64732,3.4085914893342837,,,
64733,,12.516886711120605,-2.1571757793426514,1.7501614093780518
64753,5.2662642908706,,,
64754,,13.283031463623047,-5.336675643920898,-1.7956513166427612
64773,5.575626273110703,,,
64774,,13.132196426391602,-4.850652694702148,-3.35667085647583
64792,5.046928854262298,,-4.07014274597168,
64793,,9.045293807983398,,-4.568136692047119
64813,7.986690416932284,,,
64814,,6.016628742218018,-2.3582887649536133,-6.94079065322876
64832,3.6456773270426166,10.32858657836914,-0.22266076505184174,-2.626439332962036
64852,6.794041255543806,,0.09576806426048279,
64853,,15.832856178283691,,0.5937620401382446
64871,7.59440905061908,,,
64872,,16.75941276550293,-0.35434186458587646,1.1683704853057861
64893,5.246113928374727,14.607024192810059,-1.0893617868423462,-0.7709329724311829
64911,2.547639509729193,,,
64912,,10.579977035522461,-1.7262194156646729,-2.2601263523101807
64931,4.376352809470903,,,
64932,,6.110002517700195,-2.4468741416931152,-2.300827741622925
64951,5.868009913440695,4.000710964202881,-1.7693150043487549,-1.2330138683319092
64971,6.611154158992576,3.2130186557769775,-0.11252748221158981,0.20350714027881622
64991,7.328998960911576,,1.0079588890075684,0.004788403399288654
64992,,2.6862943172454834,,
65011,6.56592637486564,3.4596214294433594,1.0749965906143188,-0.2992752194404602
65031,5.391663559092708,4.5394062995910645,0.7254431247711182,-0.021547814831137657
65051,4.718110300117744,5.738901615142822,0.7805097699165344,1.8794482946395874
65071,4.579996084686338,6.476315498352051,0.4908113479614258,2.7437551021575928
65090,4.229203898950308,,,
65091,,6.660669326782227,0.8858546018600464,2.387019157409668
65129,3.3154401866089285,,,
65130,,8.20732307434082,2.049436569213867,1.941697597503662
65168,2.7262801321988928,,,
65169,,11.049241065979004,0.871489405632019,-2.2194249629974365
65208,7.849455077094475,17.48724937438965,0.28730419278144836,1.702277421951294
65248,6.168561524021201,13.85763931274414,5.07570743560791,-0.26096799969673157
65287,6.84990871396462,,,
65288,,14.709975242614746,0.6440402865409851,-5.173870086669922
65439,7.556406640132276,,,
65440,,11.959037780761719,6.36378812789917,-5.47075080871582
65447,3.0747010992900736,8.971074104309082,-1.4173674583435059,-2.1978771686553955
65486,5.138184498575956,,,
65487,,4.977545261383057,2.365471363067627,-0.7948749661445618
65526,5.286207231342733,,1.5179238319396973,-1.1013327836990356
65527,,4.709394931793213,,
65567,3.649892382145687,6.593631267547607,-1.2258312702178955,0.6751648783683777
65606,4.143645714185456,,,
65607,,9.567230224609375,-3.5865142345428467,1.522712230682373
65646,5.204592202928035,,-3.337517261505127,
65647,,10.02452278137207,,3.3638534545898438
65687,2.423590956649366,11.96861457824707,0.20111294090747833,0.4884171485900879
65727,2.9918153695753755,11.559206008911133,-2.492363929748535,0.8164227604866028
65767,9.863298654068803,,-9.57201862335205,3.3710360527038574
65768,,11.853693008422852,,
65806,7.0354376635484295,,,
65807,,13.670891761779785,-6.13633918762207,-2.96162748336792
65846,3.8136987521298886,,,
65847,,13.33570384979248,-1.4748282432556152,-1.37906014919281
65887,5.032727895201435,8.078036308288574,-0.4596867263317108,-4.393360137939453
65926,3.780863970763492,,,
65927,,13.206416130065918,-0.586579442024231,0.629675030708313
65966,1.8297231486664838,,,
65967,,11.310209274291992,-1.5466543436050415,-0.9385270476341248
66006,2.723338497286149,,,
66007,,7.062894821166992,-0.9241618514060974,-0.5530605912208557
66047,6.372224091176021,3.4548330307006836,0.23702596127986908,-0.21547815203666687
66086,6.543227315320107,3.4548330307006836,0.4141969084739685,-1.5705963373184204
66127,3.8367735035258987,7.0341644287109375,1.036689281463623,2.190694570541382
66165,5.195907948724755,,,
66166,,9.950302124023438,3.3638534545898438,3.7828385829925537
66205,3.0779135384515115,,,
66206,,9.272743225097656,1.6519991159439087,-2.6791117191314697
66244,7.668796022458938,,,
66245,,17.07544708251953,2.4205379486083984,1.3120225667953491
66264,8.584331664263113,,,
66265,,15.868768692016602,0.043095629662275314,6.167463779449463
66285,3.988988979811136,,1.5705963373184204,2.6431987285614014
66286,,12.643778800964355,,
66305,3.6690824237838444,,,
66306,,10.51054573059082,4.532223701477051,-0.1388636976480484
66325,1.3242734374510299,,,
66326,,9.627084732055664,0.2825157940387726,1.1755530834197998
66344,6.1694247633308885,,-0.11252748221158981,-2.559401512145996
66345,,15.143325805664062,,
66364,7.487384358374378,,4.479551315307617,
66365,,15.24867057800293,,-3.9264907836914062
66384,7.729583674146672,,,
66385,,12.765883445739746,5.3797712326049805,-5.9735331535339355
66402,6.429031876316933,,,
66403,,11.892000198364258,3.335123062133789,-5.858611583709717
66423,2.9218544372814215,,,
66424,,10.14902114868164,-0.06224924325942993,-2.5474305152893066
66442,5.168084821601384,7.5848307609558105,-3.1747114658355713,0.009576806798577309
66462,7.383049919710916,,-4.970362663269043,0.08379705995321274
66463,,5.999869346618652,,
66481,5.471898159150198,,,
66482,,8.26478385925293,-4.206612586975098,-0.016759412363171577
66501,3.0195612541968213,,,
66502,,9.59835433959961,-2.1308395862579346,-1.525106430053711
66521,1.7315977387697044,,,
66522,,10.32858657836914,0.1843535304069519,-1.821987509727478
66541,2.2092385386149926,,1.4963760375976562,-0.35673606395721436
66542,,8.26478385925293,,
66561,4.685932151534439,5.475539207458496,1.53707754611969,0.15801730751991272
66581,5.314728034051012,4.790797710418701,1.2521674633026123,-0.6991068720817566
66601,4.939112918913805,5.006275653839111,0.5339069962501526,-0.6105214357376099
66620,4.410595854211149,,,
66621,,5.430049419403076,-0.38546648621559143,0.5339069962501526
66640,3.5813484165056764,,,
66641,,6.540958881378174,-1.501164436340332,1.1540051698684692
66660,2.844764444692842,8.094796180725098,-2.4013843536376953,1.414973258972168
66680,2.8096247917358848,8.7484130859375,-2.4612393379211426,1.7166426181793213
66700,3.810750841462612,9.009381294250488,-2.3726539611816406,2.9472622871398926
66720,4.31833066546879,9.979032516479492,-1.9273324012756348,3.687070608139038
66741,2.5791670109548837,10.78348445892334,-0.9528923034667969,1.9704279899597168
66761,2.9706222252298082,11.231200218200684,1.3000515699386597,-1.4987702369689941
66782,2.2527183430277997,,,
66783,,11.762712478637695,-0.6943184733390808,-0.9911994934082031
66800,7.132304680119101,,,
66801,,10.414777755737305,-5.097255229949951,5.9304375648498535
66822,9.807659145661644,11.523292541503906,-6.955155849456787,7.814674377441406
66841,6.211772128473019,,,
66842,,10.828974723815918,-7.058106422424316,-1.4724340438842773
66861,4.621802797198449,,,
66862,,11.408370971679688,-5.260061264038086,-1.656787633895874
66882,8.61132878947888,,,
66883,,13.438653945922852,-8.17380428314209,-3.9839515686035156
66902,6.54862861545561,15.926229476928711,-1.1420341730117798,-1.5945383310317993
66922,6.03434997901095,14.927847862243652,0.4357447028160095,-1.2665326595306396
66941,6.794889594185322,,,
66942,,9.77791976928711,0.8475474119186401,-5.92325496673584
66961,3.6271145671191327,9.955090522766113,-0.4836287498474121,-2.7246015071868896
66981,4.358895005356818,,,
66982,,13.409923553466797,-1.0079588890075684,-0.8810662031173706
67000,4.728304253588378,,,
67001,,14.030021667480469,-1.3934253454208374,1.4460978507995605
67021,3.523957275486689,,,
67022,,13.062764167785645,-1.8794482946395874,0.6512228846549988
67040,1.4072460885317994,,,
67041,,10.860098838806152,-2.454056739807129,0.4357447028160095
67061,2.302470547200884,,,
67062,,8.219294548034668,-2.250549554824829,-1.3766659498214722
67081,3.339157515848783,,,
67082,,6.5265936851501465,-1.721431016921997,-0.49799394607543945
67100,5.179835897077657,,,
67101,,4.575319290161133,-0.8475474119186401,0.19632454216480255
67120,6.1945988170659225,,-0.26096799969673157,
67121,,3.6320040225982666,,-0.24181437492370605
67140,7.277778551070906,,0.5171475410461426,
67141,,2.96162748336792,,-1.7381904125213623
67161,7.951089354920597,,0.6033388376235962,
67162,,2.3558945655822754,,-2.0159177780151367
67180,6.97107496950569,3.0382418632507324,0.5099649429321289,-0.9672574996948242
67199,4.45231562168964,,,
67200,,6.030993938446045,1.216254472732544,1.9823989868164062
67218,5.4467937802657085,8.547300338745117,2.3104045391082764,4.508281707763672
67237,5.15174271069056,,,
67238,,9.684545516967773,2.719813108444214,3.9408559799194336
67258,4.047789952599593,10.230423927307129,3.1699230670928955,1.9033904075622559
67277,3.8795701425895075,10.244789123535156,2.434903144836426,-2.540247917175293
67298,3.9099438101787194,11.15697956085205,1.5155296325683594,-2.8443117141723633
67317,7.474523635025622,15.919047355651855,3.711012601852417,1.886630892753601
67337,8.886427708146249,,,
67338,,15.105018615722656,0.8619126081466675,7.331045627593994
67357,3.3967320163818164,,,
67358,,11.133037567138672,2.1068975925445557,2.477998733520508
67377,4.1164526962292385,10.608707427978516,4.1874589920043945,-1.170764684677124
67397,1.6869844426159644,11.262324333190918,0.7972691655158997,-0.7852981686592102
67417,10.42840691752112,18.928558349609375,0.8044517636299133,-5.099649429321289
67437,7.420194608290428,15.243882179260254,4.98472785949707,-2.911349296569824
67457,8.83760337067705,11.26950740814209,5.652710437774658,-7.548917770385742
67477,6.330467713539654,11.118672370910645,2.454056739807129,-6.04775333404541
67497,3.0820474950558086,9.339780807495117,-1.920149803161621,0.11971008777618408
67518,6.996542212821346,7.295132637023926,-5.252878665924072,1.091755986213684
67536,7.727592067953715,,,
67537,,6.931213855743408,-5.925649166107178,-1.3670891523361206
67557,3.1538652532188856,,,
67558,,9.986215591430664,-2.205059766769409,-0.9768342971801758
67577,2.1253556346624682,,,
67578,,10.47942066192627,1.0103530883789062,-1.9105730056762695
67597,3.1522749239795216,9.703699111938477,2.765302896499634,-1.534683346748352
67617,4.384229896629398,,3.2082302570343018,
67618,,7.026981830596924,,-0.3519476354122162
67637,5.815129167429277,,,
67638,,4.4532151222229,1.9321208000183105,-0.3998316824436188
67657,5.436070396770316,4.778826713562012,1.0869675874710083,-1.3287819623947144
67677,5.7491653500033975,,-0.026336219161748886,-1.7070658206939697
67678,,4.343081951141357,,
67696,4.689180403551954,5.274426460266113,-1.699883222579956,-0.8140285611152649
67717,4.125863187236693,6.495469093322754,-2.9712042808532715,0.9528923034667969
67737,4.403584424776345,7.754819393157959,-3.7660791873931885,2.22660756111145
67757,5.207102678500142,8.382100105285645,-4.144362926483154,3.2992098331451416
67777,5.338181298971446,,,
67778,,9.5624418258667,-3.4524388313293457,4.0533833503723145
67796,3.9625118219337647,,,
67797,,10.292673110961914,-2.1332337856292725,3.1052796840667725
67816,1.2753984763588733,,,
67817,,9.923966407775879,-1.0223240852355957,0.7972691655158997
67835,0.9625322088822177,,-0.2346317619085312,-0.7972691655158997
67836,,9.835380554199219,,
67856,4.157496444691453,,-4.802768707275391,
67857,,10.551246643066406,,1.3934253454208374
67876,9.365871613812875,,,
67877,,9.090784072875977,-5.530605792999268,8.317456245422363
67896,9.02646391347409,12.847286224365234,-6.890512466430664,6.3973069190979
67915,7.417554766456322,,,
67916,,12.346898078918457,-4.0749311447143555,-6.244078159332275
67936,8.258341877840191,12.950237274169922,-8.073247909545898,-3.8522706031799316
67955,7.987015199947927,,,
67956,,15.3731689453125,-3.8498764038085938,-5.216965675354004
67975,7.757795289664948,,,
67976,,16.201562881469727,1.4652514457702637,1.6376339197158813
67996,7.449330897654762,9.907206535339355,1.9800047874450684,-6.009446144104004
68016,4.580470815388414,8.937555313110352,0.08858546614646912,-3.380612850189209
68035,4.377226126930636,,-0.828393816947937,0.08140286058187485
68036,,13.4506254196167,,
68055,5.820449479302546,,-0.8331822156906128,1.3934253454208374
68056,,14.961366653442383,,
68075,4.803845637310226,,-2.6240451335906982,0.7589619159698486
68076,,14.27662467956543,,
68095,3.363422599064087,12.334927558898926,-3.7900211811065674,-0.3878606855869293
68114,2.5730222199033204,,,
68115,,9.710882186889648,-4.2975921630859375,-0.44771572947502136
68134,2.1377928996041455,,,
68135,,8.317456245422363,-3.426102638244629,0.5339069962501526
68154,2.296659498420384,,,
68155,,7.6351094245910645,-2.2912509441375732,1.3694833517074585
68174,3.5356536683890534,,,
68175,,6.205770969390869,-0.8236053586006165,0.44771572947502136
68194,5.054487693174661,,,
68195,,5.389348030090332,0.6560112833976746,-1.0989385843276978
68214,6.503963142581498,,,
68215,,4.513070106506348,1.5179238319396973,-2.140416383743286
68234,7.195467306287992,,,
68235,,3.354276657104492,1.6543933153152466,-1.4437036514282227
68254,6.60016020378113,,,
68255,,3.5027170181274414,1.314416766166687,0.768538773059845
68274,6.2884434744845334,4.9583916664123535,1.400607943534851,3.6583402156829834
68294,6.131972101057255,6.222530364990234,1.6280571222305298,4.491522312164307
68314,4.24817887725945,6.6391215324401855,1.2042834758758545,2.3104045391082764
68334,4.0844067829883075,,0.828393816947937,-1.091755986213684
68335,,6.0621185302734375,,
68354,6.113798525439644,5.803544998168945,-0.07900865375995636,-4.49870491027832
68374,4.23821869553491,,3.7158010005950928,0.727837324142456
68375,,11.037269592285156,,
68394,12.682806941641322,18.8280029296875,7.481880187988281,4.436455726623535
68415,7.403594365826062,14.568717002868652,3.026270866394043,4.668693542480469
68434,11.166845595411347,15.899893760681152,6.868964672088623,-6.7061591148376465
68453,9.538707379753427,,,
68454,,17.822437286376953,1.745373010635376,-5.303156852722168
68473,9.746011945423216,19.029115676879883,-1.6065093278884888,-2.6240451335906982
68493,2.444676520669033,,2.3247697353363037,
68494,,11.231200218200684,,-2.0614075660705566
68513,6.527472320696652,,,
68514,,11.815385818481445,3.339911460876465,-6.342240333557129
68533,4.579062304061024,9.885659217834473,1.400607943534851,-4.874594688415527
68554,5.437390556549449,8.322244644165039,-3.8091750144958496,0.1364694982767105
68572,7.7290294323140065,,,
68573,,8.267178535461426,-5.985504150390625,-1.7286136150360107
68591,5.501485797289965,,-3.646369218826294,
68592,,11.305420875549316,,-2.1930887699127197
68611,4.817630163709862,13.907917976379395,-0.5147533416748047,-2.1787235736846924
68630,3.926250190625555,,,
68631,,12.76109504699707,2.9759926795959473,-0.6177040338516235
68650,3.5906010639398818,8.585607528686523,3.6128504276275635,0.363918662071228
68670,5.354834944089536,,2.7533318996429443,
68671,,5.264849662780762,,-0.7038952708244324
68691,5.945869088906357,4.2329487800598145,2.0039467811584473,-0.15562310814857483
68710,5.720705458880541,,,
68711,,4.156333923339844,0.5961562395095825,-0.2825157940387726
68730,5.996142418878216,,,
68731,,4.05817174911499,-0.9145850539207458,-1.338358759880066
68750,6.1600051503345705,,,
68751,,4.1180267333984375,-1.7357962131500244,-1.7525556087493896
68770,5.1330783722879,,,
68771,,4.896142482757568,-2.0829553604125977,-0.3758896589279175
68790,4.216435002131216,,,
68791,,6.708553314208984,-3.1220390796661377,1.522712230682373
68810,4.379041712194424,,-3.224989652633667,3.098097085952759
68811,,8.554482460021973,,
68830,4.293896117632395,,,
68831,,9.064447402954102,-2.145204782485962,3.5266590118408203
68850,2.5659838928406917,,-1.1827356815338135,1.9057846069335938
68851,,8.992621421813965,,
68870,1.5199422795228295,,,
68871,,9.3828763961792,-0.3256114423274994,0.9720458984375
68891,1.4078820400866412,11.080365180969238,-1.1875240802764893,-0.5650315880775452
68910,5.40685520202448,12.492944717407227,-4.6734819412231445,2.1547815799713135
68929,8.974392382101959,,,
68930,,10.220847129821777,-5.494692802429199,7.445967197418213
68950,8.512427725464105,,-6.907271862030029,5.506663799285889
68951,,12.11705493927002,,
68969,7.524386875863442,,,
68970,,12.191274642944336,-7.048529624938965,-3.847482204437256
68989,8.893187892626282,,-9.734824180603027,
68990,,10.488997459411621,,-2.9065608978271484
69009,7.348270923917345,,,
69010,,13.812150001525879,-5.284003257751465,-4.819528102874756
69029,8.237970077693689,,0.7445967197418213,
69030,,16.910245895385742,,2.4612393379211426
69050,10.592684801950663,,,
69051,,16.15128517150879,4.807557106018066,-3.93367338180542
69070,6.667359443272935,11.116278648376465,3.5218706130981445,-1.8770540952682495
69090,6.693565968780614,15.593435287475586,-0.912190854549408,-1.161187767982483
69110,7.082447879274968,16.40267562866211,-1.501164436340332,1.2976573705673218
69130,4.263024959511722,13.589488983154297,-3.315969467163086,1.4963760375976562
69150,3.370472308151647,10.453084945678711,-5.200206279754639,1.659181833267212
69170,4.702649875100029,7.070077419281006,-5.442020416259766,-0.6129156351089478
69190,4.658408260027222,5.592854976654053,-3.1531636714935303,-0.7038952708244324
69209,5.577479733883823,,-0.2585737705230713,
69210,,4.299986362457275,,-0.0454898327589035
69230,6.689692628011797,3.507505416870117,0.9409212470054626,-0.33997663855552673
69249,7.016699897645138,,,
69250,,3.531447410583496,1.5945383310317993,-0.9217676520347595
69270,7.709387162488506,2.765302896499634,1.7310078144073486,-0.9433154463768005
69290,8.040345500146044,1.9584569931030273,1.278503656387329,0.47644615173339844
69309,6.4348041111578995,,1.4197616577148438,
69310,,3.8379054069519043,,2.3726539611816406
69328,4.907936923864528,,,
69329,,6.552929878234863,1.7190368175506592,3.428496837615967
69349,3.9260479736817264,,,
69350,,8.975862503051758,1.41257905960083,3.6152446269989014
69369,3.148523523561158,,,
69370,,9.919178009033203,1.5322890281677246,2.691082715988159
69389,3.073384618958754,9.691728591918945,1.7573440074920654,-1.9536685943603516
69409,4.390880862345783,11.568782806396484,2.6431987285614014,-2.2361843585968018
69427,8.453443595255372,15.107412338256836,5.851428985595703,2.75812029838562
69447,8.898622693419682,,,
69448,,15.006855964660645,2.2361843585968018,7.371747016906738
69467,3.1887434983495617,,,
69468,,9.397241592407227,1.9488801956176758,2.9712042808532715
69487,5.6729072913481025,,5.389348030090332,-2.0422539710998535
69488,,8.681375503540039,,
69507,6.916768758855291,14.94221305847168,0.8523358106613159,-4.434061527252197
69526,12.849955375386097,,,
69527,,21.593305587768555,2.9448680877685547,-4.4532151222229
69547,9.08123904474993,18.16480827331543,2.2146365642547607,-3.308786630630493
69566,8.367192059114071,,1.0630255937576294,
69567,,10.153809547424316,,-8.406042098999023
69587,6.700128058732756,,,
69588,,11.24795913696289,-0.4429273009300232,-6.045359134674072
69606,5.287840934565598,9.93593692779541,-3.35667085647583,2.9879636764526367
69626,7.803542716655305,,,
69627,,7.422025203704834,-4.359841346740723,-4.252102375030518
69646,3.919766896771339,,,
69647,,9.890447616577148,-2.5929205417633057,-0.5985504388809204
69666,2.987458717986711,10.682928085327148,-0.48602294921875,-1.8291701078414917
69705,3.730720168024792,,,
69706,,,3.818751811981201,0.14844051003456116
69708,,9.610325813293457,,
69744,5.1341030873082785,,,
69745,,4.845864295959473,1.1300631761550903,0.09816227108240128
69896,5.3588806458180285,4.6471452713012695,-1.1109095811843872,-0.7589619159698486
69904,2.0887148080597213,8.5903959274292,-1.3527239561080933,2.205059766769409
69944,3.559219991977729,10.517727851867676,-3.708618402481079,-0.5841852426528931
69983,10.396630592328451,,,
69984,,12.413935661315918,-6.610390663146973,8.588001251220703
70023,7.164649531650307,10.979808807373047,-5.8657941818237305,-4.671087741851807
70063,8.536880814759577,16.797719955444336,0.5506663918495178,-3.8139634132385254
70103,8.319964506367022,11.291055679321289,-0.2968810200691223,-7.522581577301025
70142,8.886735920313082,,,
70143,,17.1999454498291,2.075772762298584,2.631227731704712
70183,2.9562134109394176,12.160150527954102,-1.8579005002975464,-0.35434186458587646
70223,5.492492754119275,6.174646377563477,-5.456385612487793,0.08619125932455063
70263,5.513519490399985,4.261679172515869,-1.6687586307525635,0.2537853717803955
70302,6.3121295480330835,,,
70303,,3.797203779220581,1.2186486721038818,0.035913024097681046
70342,6.306170321094439,,,
70343,,3.7612907886505127,1.4844050407409668,1.2066776752471924
70382,4.8055405270458476,,,
70383,,7.208941459655762,2.10210919380188,3.8163576126098633
70422,3.050210701590413,7.285555839538574,1.8052281141281128,0.2992752194404602
70462,3.580410290015466,,,
70463,,9.275136947631836,3.7253777980804443,-0.1628057211637497
70501,10.945478744387916,,,
70502,,16.182409286499023,1.2497732639312744,9.311050415039062
70541,9.860056326126871,,,
70542,,12.114660263061523,6.5481414794921875,-7.580042362213135
70581,9.74121245496542,,1.05105459690094,
70582,,18.988412857055664,,2.8634653091430664
70620,9.109836468532157,,,
70621,,14.669273376464844,0.646434485912323,-7.632715225219727
70660,6.550527932825756,,,
70661,,8.44195556640625,-4.23773717880249,-1.9919757843017578
70699,3.1317864542882985,,,
70700,,11.417947769165039,0.2298433631658554,-1.8770540952682495
70739,3.0642368296237255,,,
70740,,8.683769226074219,3.428496837615967,-0.42856210470199585
70790,5.01844551426422,4.881777286529541,-0.011971008032560349,-0.47644615173339844
70799,4.992249394422647,4.934449672698975,-0.6727706789970398,-0.26336219906806946
70819,5.440451336257636,4.599261283874512,-1.501164436340332,-0.15083470940589905
70839,6.0118339185483975,,-2.118868589401245,-0.2992752194404602
70840,,4.134786128997803,,
70859,5.490968224312109,,,
70860,,4.6950297355651855,-2.4444799423217773,0.5674257874488831
70879,5.211567030001929,,,
70880,,5.578489780426025,-3.043030261993408,2.231395959854126
70899,4.813984233315311,,-3.4524388313293457,
70900,,7.378929615020752,,3.485957622528076
70919,3.7670252558968134,,-2.248155355453491,
70920,,8.865729331970215,,3.529053211212158
70939,1.3386709791524989,9.466673851013184,-0.7230489253997803,1.2401964664459229
70959,2.4499225487436394,,,
70960,,9.387664794921875,1.1563993692398071,-0.6129156351089478
70980,1.9112494525197594,,-1.0558429956436157,
70981,,10.572794914245605,,-1.577778935432434
70999,7.438030320181904,,-7.714118003845215,
71000,,10.295066833496094,,3.5051112174987793
71019,10.818538324763423,,-8.561665534973145,
71020,,11.439496040344238,,7.936778545379639
71039,11.582282880909032,16.04115104675293,-10.711658477783203,-2.6384103298187256
71059,10.666523296664254,,-6.864176273345947,
71060,,16.259023666381836,,-6.536170482635498
71078,8.340280561599316,,,
71079,,17.322050094604492,-4.02465295791626,-2.499546527862549
71098,5.332865913094563,,,
71099,,14.506467819213867,-0.7637503147125244,0.8930372595787048
71118,8.028452345135111,,,
71119,,11.286267280578613,-1.3623007535934448,-7.716512203216553
71138,6.612365767445149,,0.8164227604866028,
71139,,11.777078628540039,,-4.72376012802124
71158,7.663292709094679,,,
71159,,14.077905654907227,3.318363666534424,-0.3208230137825012
71178,7.712946018571658,15.583858489990234,1.8794482946395874,2.1068975925445557
71198,6.039720348932602,,,
71199,,14.901511192321777,-1.2186486721038818,-1.4293384552001953
71218,3.1494821940304942,,-2.7006595134735107,
71219,,12.325350761413574,,-0.6153098344802856
71238,2.5354336673497815,9.612719535827637,-4.0533833503723145,1.8124107122421265
71258,3.9983979831783585,6.421248912811279,-3.7660791873931885,1.3096283674240112
71277,4.727065685379936,,,
71278,,5.228936672210693,-2.6815059185028076,-0.1149216815829277
71297,5.566571749184444,,,
71298,,,-1.6496049165725708,0.20350714027881622
71299,,4.199429988861084,,
71317,5.788652289679399,,,
71318,,3.9815573692321777,-0.4141969084739685,0.7948749661445618
71337,6.948940706828738,,-0.05985504388809204,-0.7254431247711182
71338,,2.9879636764526367,,
71357,7.445217968559768,2.6001031398773193,0.6871358752250671,-0.8331822156906128
71377,7.2292913449957235,,1.094150185585022,
71378,,2.6886885166168213,,0.6775590777397156
71397,6.041172542316198,,1.4700398445129395,1.2066776752471924
71398,,4.02465295791626,,
71416,5.176623789029817,,,
71417,,,1.6974890232086182,2.118868589401245
71418,,5.284003257751465,,
71436,4.101672013046912,,,
71437,,7.331045627593994,2.049436569213867,2.6862943172454834
71456,2.1253054904135045,,,
71457,,8.729259490966797,1.625662922859192,0.3495534360408783
71476,3.923885969739134,,,
71477,,9.979032516479492,1.2258312702178955,-3.2537200450897217
71496,8.85365328628086,,,
71497,,15.895105361938477,5.781997203826904,2.4803929328918457
71516,10.534396191182148,,3.4117374420166016,
71517,,19.603723526000977,,1.436521053314209
71536,6.783866131577341,,,
71537,,15.76821231842041,3.1220390796661377,0.5770025849342346
71556,8.628913323333451,14.33169174194336,6.658275127410889,-3.375824451446533
71576,5.212179101813356,13.464990615844727,3.117250680923462,-2.6886885166168213
71596,7.520226479630227,,-0.4165911078453064,1.8100165128707886
71597,,16.95573616027832,,
71615,5.204212155332913,,,
71616,,11.171344757080078,4.4508209228515625,-3.7684733867645264
71636,8.437013513174218,11.959037780761719,6.01423454284668,-6.730101108551025
71655,8.181551337466365,,,
71656,,11.626243591308594,4.508281707763672,-7.2352776527404785
71676,4.073693216869785,8.595184326171875,-2.363077163696289,-0.9074024558067322
71695,8.13741070629532,,,
71696,,8.008605003356934,-6.102819919586182,-2.363077163696289
71715,6.594464737902793,,-4.6734819412231445,
71716,,9.543288230895996,,-2.5665841102600098
71734,3.3552716411566004,10.584765434265137,-1.6927006244659424,-1.6208745241165161
71754,2.1012001150587607,11.492168426513672,0.26336219906806946,-1.048660397529602
71774,1.524920480249575,,0.7015010714530945,
71775,,11.21204662322998,,0.6536170840263367
71794,2.3872512248382955,7.572859764099121,1.0103530883789062,-0.08619125932455063
71814,5.5464621806659435,,1.946485996246338,-1.070208191871643
71815,,4.76924991607666,,
71834,6.501081230028112,,,
71835,,3.5386300086975098,1.4389152526855469,-0.49320554733276367
71854,5.669008818146661,,0.07422025501728058,
71855,,4.256890773773193,,-0.7565677165985107
71874,5.571366690547043,,,
71875,,4.393360137939453,-1.2761094570159912,-0.7398083209991455
71894,4.982655387021116,,-2.580949544906616,0.0071826050989329815
71895,,5.193023681640625,,
71914,4.1952661266640945,,,
71915,,7.096413612365723,-4.050989151000977,0.7326257228851318
71934,4.439276970768253,8.125920295715332,-4.55616569519043,2.0829553604125977
71954,4.744638730155068,,-3.6822822093963623,
71955,,8.492233276367188,,3.531447410583496
71974,4.85202559811726,9.720458984375,-2.360682964324951,4.321534156799316
71994,4.056169477936078,10.54645824432373,-0.9911994934082031,3.6391866207122803
72014,1.631096773514776,10.54645824432373,0.19393034279346466,0.26096799969673157
72033,2.6618973779823714,,,
72034,,11.621455192565918,-2.4133553504943848,-1.1803414821624756
72054,6.828864644579242,9.981427192687988,-5.274426460266113,5.722142219543457
72073,9.576333007452744,,,
72074,,11.561599731445312,-5.858611583709717,8.547300338745117
72094,5.368044056070613,,,
72095,,10.6709566116333,-6.584054470062256,-0.27054479718208313
72113,3.593530797492808,,,
72114,,11.63342571258545,-1.6280571222305298,-2.5282769203186035
72133,6.510789572653612,,,
72134,,15.004462242126465,-5.34625244140625,-0.6105214357376099
72153,7.071985407231668,16.306907653808594,-1.8507179021835327,-2.094926595687866
72173,6.7255186540349055,,-0.8140285611152649,-1.2401964664459229
72174,,16.045940399169922,,
72193,8.525606070087022,,0.3902548849582672,-7.711723804473877
72194,,9.062053680419922,,
72213,6.013758144274034,6.63433313369751,0.6775590777397156,-3.797203779220581
72233,4.013746720333179,12.765883445739746,0.019153613597154617,0.31124621629714966
72252,6.928217270666426,,-0.3758896589279175,
72253,,15.31570816040039,,3.60566782951355
72272,5.472596477914575,,,
72273,,14.896722793579102,-1.8986018896102905,1.2641384601593018
72292,3.482668608495026,,-3.6822822093963623,
72293,,12.643778800964355,,-0.1173158809542656
72312,2.71447408890105,,,
72313,,,-4.2329487800598145,-0.37828385829925537
72314,,8.904036521911621,,
72332,3.6066510379144736,,-3.090914487838745,0.6224924325942993
72333,,6.5265936851501465,,
72352,4.59709014907747,5.2265424728393555,-1.0749965906143188,1.3311761617660522
72372,6.50231686895576,3.246537446975708,-0.7086837291717529,0.545877993106842
72392,7.8217060017512825,,-0.6823474764823914,-1.0773907899856567
72393,,2.126051187515259,,
72412,9.251058569469858,0.9768342971801758,-0.6967126727104187,-2.118868589401245
72431,8.686825513385198,,,
72432,,1.2641384601593018,-0.40222588181495667,-1.01753568649292
72451,5.381876605300212,,,
72452,,4.620809078216553,0.4644751250743866,1.7549498081207275
72471,5.478579510266998,,,
72472,,7.501033782958984,1.7932571172714233,4.563348293304443
72491,5.055751116723216,,,
72492,,8.966285705566406,2.58813214302063,3.9408559799194336
72511,4.572900492553377,,,
72512,,9.950302124023438,3.6320040225982666,2.3487119674682617
72531,4.172354109895201,,,
72532,,10.08198356628418,3.3710360527038574,-1.98958158493042
72551,5.792777780483427,,1.9249382019042969,-4.991910457611084
72552,,10.84094524383545,,
72571,5.55048212242701,12.24155330657959,4.5825018882751465,1.6639702320098877
72591,9.868790231324345,16.618154525756836,1.0055646896362305,7.402871608734131
72610,3.8609042825045674,,,
72611,,13.321338653564453,1.6304513216018677,0.004788403399288654
72630,8.394884331947484,,,
72631,,15.466543197631836,3.0573954582214355,-5.604825973510742
72651,8.486425893064556,,-1.6927006244659424,-3.665522813796997
72652,,17.216705322265625,,
72670,10.449498024889424,,,
72671,,19.840749740600586,3.2824504375457764,0.8379706144332886
72690,6.312100841630472,,,
72691,,10.311826705932617,5.453991413116455,-5.049371242523193
72710,8.671609300546706,,,
72711,,11.980585098266602,4.970362663269043,-7.769184589385986
72730,4.236009345717022,,0.22266076505184174,
72731,,8.887276649475098,,-3.995922565460205
72750,7.668146847460522,,-5.918466567993164,1.1899182796478271
72751,,8.149862289428711,,
72770,9.312926417067143,,,
72771,,7.7428483963012695,-7.536946773529053,-1.7597382068634033
72789,4.929785967778962,,,
72790,,11.010933876037598,-3.3039982318878174,-1.922544002532959
72810,3.9982126534236606,,1.1420341730117798,-2.829946517944336
72811,,12.789825439453125,,
72829,3.48804571332636,,,
72830,,10.254365921020508,3.847482204437256,-0.9145850539207458
72850,4.170230155466308,6.8162922859191895,3.181894063949585,0.36152446269989014
72869,4.409841818535213,,,
72870,,5.91128396987915,2.2026655673980713,0.06224924325942993
72889,5.031458500871898,,1.1228805780410767,0.19871874153614044
72890,,4.910507678985596,,
72908,5.286886604387441,,-0.05746084079146385,
72909,,4.546588897705078,,-0.586579442024231
72928,5.52848341552477,4.3861775398254395,-1.403002142906189,-0.30885201692581177
72948,5.2201406487703315,,-2.499546527862549,0.49320554733276367
72949,,5.006275653839111,,
72968,4.7527839131962555,6.069301128387451,-3.1268274784088135,1.5059528350830078
72988,4.289681923196318,,,
72989,,7.2568254470825195,-3.557783842086792,1.8746598958969116
73008,4.704834484792943,,,
73009,,8.789113998413086,-3.667917013168335,3.3231520652770996
73028,4.8506914176861695,,,
73029,,10.031704902648926,-2.367865562438965,4.220977783203125
73048,3.995908552037947,,,
73049,,,-0.1364694982767105,
73050,,10.192116737365723,,3.6535518169403076
73069,1.8520732448833772,,0.569819986820221,-0.23942017555236816
73070,,8.650250434875488,,
73088,3.563446053154541,,-3.246537446975708,
73089,,9.5408935546875,,-2.296039342880249
73108,7.783272476557398,10.38844108581543,-5.719748020172119,6.473921298980713
73128,8.98082895373746,12.828132629394531,-4.903325080871582,7.891288757324219
73147,4.5039119670795245,,,
73148,,11.860875129699707,-5.171475887298584,0.21547815203666687
73167,6.265193933893577,,,
73168,,11.4849853515625,-5.530605792999268,-3.847482204437256
73188,10.381125606593116,15.8903169631958,-6.1315507888793945,-6.509834289550781
73207,11.543655462864114,,,
73208,,19.7569522857666,3.177105665206909,2.3343467712402344
73227,8.065685500487447,,,
73228,,15.598223686218262,2.8371291160583496,-1.2330138683319092
73247,6.89007773788735,,1.158793568611145,
73248,,9.227252960205078,,-5.188235282897949
73267,3.138376826226187,,-0.828393816947937,-1.0678139925003052
73268,,11.370063781738281,,
73287,4.91370636782104,,,
73288,,13.687650680541992,0.13407529890537262,1.9943699836730957
73307,3.302266706475387,12.081141471862793,-0.12449848651885986,1.7597382068634033
73327,1.0776380462016064,,,
73328,,10.579977035522461,-1.9967641830444336,0.3711012601852417
73347,1.29022862256691,,-2.6623523235321045,
73348,,9.583989143371582,,0.3734954595565796
73367,2.0642474314731523,8.224082946777344,-2.612074136734009,0.6177040338516235
73386,1.9719120850378102,,,
73387,,7.951143741607666,-1.482010841369629,1.7501614093780518
73407,4.348881606226547,5.4444146156311035,-0.3758896589279175,0.38307225704193115
73427,7.009250795213785,3.047818660736084,0.38067805767059326,-0.6655880808830261
73446,8.588458509410819,,,
73447,,1.4532804489135742,0.07422025501728058,-0.9768342971801758
73466,8.768249662756958,,-0.23942017555236816,
73467,,1.0055646896362305,,0.2753331959247589
73486,7.15791081642258,,-0.12689268589019775,
73487,,2.942473888397217,,3.2345664501190186
73506,4.911447287014796,6.5265936851501465,0.5315127968788147,4.194641590118408
73526,3.2174786769868784,,0.5602431893348694,3.380612850189209
73527,,9.23682975769043,,
73546,1.665304087916292,10.168174743652344,0.4381389021873474,1.723825216293335
73566,2.688590782058806,8.937555313110352,0.2585737705230713,-2.2625205516815186
73585,3.434599051139717,,,
73586,,10.867281913757324,2.935291290283203,-0.5770025849342346
73605,10.22025878220289,17.420211791992188,5.365406036376953,4.398148536682129
73624,6.464352204689154,,,
73625,,13.996502876281738,3.9049429893493652,3.292027235031128
73644,15.299298757801573,,,
73645,,17.19036865234375,8.700529098510742,-10.24239444732666
73664,14.321684842862632,,,
73665,,21.291635513305664,1.4891934394836426,-8.588001251220703
73684,11.396707802276444,,0.6272808313369751,
73685,,20.489578247070312,,3.49314022064209
73704,5.925399174502699,8.159439086914062,1.2617442607879639,-6.035782337188721
73724,4.462916908771071,10.417171478271484,2.652775526046753,-4.242525577545166
73744,3.8470139950169724,,,
73745,,7.881711959838867,-1.3048399686813354,-1.5275006294250488
73764,7.188092547330908,,,
73765,,6.8378400802612305,-5.032611846923828,0.27054479718208313
73784,8.357903638033658,,,
73785,,7.960720539093018,-5.681440830230713,-3.550601005554199
73804,5.616711082999782,,,
73805,,13.52005672454834,-1.0678139925003052,-3.222595453262329
73824,6.811579930881319,,,
73825,,15.318102836608887,3.804386615753174,-2.209848165512085
73844,5.087878441384165,,,
73845,,,5.3797712326049805,1.5203180313110352
73846,,9.610325813293457,,
73864,5.004163725018596,,,
73865,,6.18182897567749,3.60566782951355,-0.8044517636299133
73884,4.8643324118137805,,1.7142484188079834,
73885,,5.2049946784973145,,-0.2825157940387726
73904,5.644888748410689,,-0.26575639843940735,
73905,,4.168305397033691,,-0.08619125932455063
73924,5.833526971418709,4.120420932769775,-1.3000515699386597,-0.7134721279144287
73944,5.324226273036688,,,
73945,,4.644751071929932,-1.644816517829895,-0.4118026793003082
73963,4.519486515282063,,,
73964,,5.489904403686523,-1.886630892753601,0.35913026332855225
73983,4.5649240403472895,,,
73984,,5.710171222686768,-2.33913516998291,1.070208191871643
74004,4.712014956011782,6.517016887664795,-3.1435868740081787,2.1499931812286377
74023,4.403486535070907,,,
74024,,8.429984092712402,-2.894589900970459,3.2345664501190186
74043,2.759131529490319,,-1.5897499322891235,2.1811177730560303
74044,,9.327810287475586,,
74063,0.9109031984862506,,-0.05267243832349777,
74064,,9.32302188873291,,-0.023942016065120697
74083,1.7369846265746116,9.636661529541016,-1.2880805730819702,-1.7573440074920654
74103,5.996814517958094,,-5.765237808227539,3.0095114707946777
74104,,9.349357604980469,,
74123,11.141305011898924,,-6.574477672576904,9.469067573547363
74124,,10.63743782043457,,
74143,8.517950513887202,,-5.501875400543213,
74144,,14.116212844848633,,5.655104637145996
74163,6.8113567547930165,11.133037567138672,-7.4555439949035645,-2.0015525817871094
74182,6.259696153085634,,,
74183,,10.563218116760254,-6.430825710296631,-3.4763808250427246
74202,11.46387413382797,,,
74203,,16.53435707092285,-6.653486728668213,-7.632715225219727
74242,9.779105929519412,,,
74243,,17.14966583251953,2.2361843585968018,-4.247313976287842
74281,5.245491271598869,13.369222640991211,-1.7525556087493896,-2.5929205417633057
74321,3.8144024964238006,12.09311294555664,0.17956513166427612,0.31842881441116333
74360,2.262983057711331,,,
74361,,7.838616371154785,-2.410961151123047,-0.4572925269603729
74560,6.105625885194013,,4.031835556030273,3.308786630630493
74561,,11.12346076965332,,
74600,5.300328212148201,10.180145263671875,1.7932571172714233,-2.96162748336792
74639,7.666050457723411,14.709975242614746,1.8722656965255737,6.303933143615723
74679,13.39457055167025,,,
74680,,13.572729110717773,8.056488990783691,-8.42040729522705
74719,12.909642694967152,22.096088409423828,0.7326257228851318,4.2329487800598145
74758,8.732958956937487,,,
74759,,12.593501091003418,1.4460978507995605,-7.457938194274902
74799,4.106233389485525,8.892065048217773,-3.5410242080688477,0.5650315880775452
74838,5.281845871756225,13.599065780639648,1.0582371950149536,-2.4660277366638184
74878,5.71759788706276,6.586448669433594,4.098873138427734,-0.181959331035614
74918,6.6059157244543885,3.2776620388031006,-0.5793967843055725,-0.45250412821769714
74958,6.772366801008518,3.337517261505127,-1.5083470344543457,-1.678335428237915
74997,3.239164777172399,,,
74998,,6.509834289550781,-1.357512354850769,0.950498104095459
75037,3.412488212145892,,,
75038,,9.20091724395752,-2.9544448852539062,2.9472622871398926
75077,3.305430804408765,9.545681953430176,-2.7964274883270264,2.7437551021575928
75117,2.377546250528237,8.133103370666504,-2.868253707885742,-1.3646949529647827
75157,9.251728618040794,8.197746276855469,-5.736507415771484,8.932766914367676
75197,9.894322287321685,,-5.317522048950195,
75198,,15.509638786315918,,-7.168240070343018
75237,11.15268408795491,,-0.19393034279346466,
75238,,17.820043563842773,,-6.933608055114746
75276,12.037124428282409,,,
75277,,12.871228218078613,2.032677173614502,-9.979032516479492
75317,9.643151148598005,,,
75318,,17.365144729614258,1.4915876388549805,1.414973258972168
75356,3.4424804673648444,,,
75357,,11.619060516357422,-1.036689281463623,-0.8619126081466675
75531,4.7993426111188775,5.698200225830078,-5.039794445037842,0.7350199222564697
75562,6.2299409553093374,8.33182144165039,2.896984100341797,4.469974517822266
75601,4.556798010837464,10.177751541137695,2.940079689025879,1.1516109704971313
75641,4.255301366728294,8.51138687133789,1.534683346748352,-1.987187385559082
75681,12.741681545557416,18.820819854736328,0.7469909191131592,9.548076629638672
75721,8.41404255162445,11.690886497497559,5.5976433753967285,-4.7836151123046875
75760,12.531635991951156,,,
75761,,22.026655197143555,0.8810662031173706,-2.0254945755004883
75800,8.028005694270906,,,
75801,,11.23598861694336,0.14604631066322327,-7.762001991271973
75840,4.639493759425698,10.441113471984863,-4.120420932769775,1.1420341730117798
75880,2.3004662082696683,10.706870079040527,-1.7477672100067139,-0.5171475410461426
75920,5.289589161197937,8.001421928405762,3.378218650817871,-2.0159177780151367
75959,6.396452767097478,,,
75960,,4.757278919219971,2.6455929279327393,-1.1540051698684692
75999,5.696488205443408,,,
76000,,4.3861775398254395,0.7948749661445618,-0.4644751250743866
76039,4.919136956976219,4.9152960777282715,-1.4963760375976562,-0.7158663272857666
76079,3.8975892759109816,7.594407558441162,-3.004723072052002,2.583343744277954
76119,3.472112452149425,9.117119789123535,-2.7509377002716064,2.736572504043579
76159,0.6345909465183664,,-1.3742717504501343,
76160,,9.165003776550293,,-0.10055647045373917
76199,9.975388567629599,9.397241592407227,-7.271190643310547,8.307879447937012
76239,11.906673554022984,13.855245590209961,-9.947908401489258,-7.433996200561523
76279,12.884605010036141,,3.7900211811065674,-2.6623523235321045
76280,,20.494365692138672,,
76318,9.073358594348656,,,
76319,,12.301408767700195,0.5003881454467773,-7.572859764099121
76358,8.266768089820768,,,
76359,,16.64927864074707,0.5889736413955688,1.3982137441635132
76398,1.611025288185059,,-2.0254945755004883,
76399,,10.462661743164062,,-0.3734954595565796
76438,2.976257468786565,,-2.274491548538208,
76439,,6.651092529296875,,0.4165911078453064
76478,7.05820030378285,,-0.9911994934082031,
76479,,2.9759926795959473,,-1.3718775510787964
76517,7.04872313495515,,,
76519,,2.935291290283203,0.7350199222564697,1.1109095811843872
76557,6.101238637771765,,,
76558,,3.97916316986084,0.849941611289978,1.4269442558288574
76597,5.039537510920482,,,
76598,,9.299078941345215,1.1492167711257935,4.656722068786621
76637,3.662254814820279,8.549694061279297,1.0223240852355957,-3.07415509223938
76677,10.358323263918912,,8.02536392211914,5.6191911697387695
76678,,13.397953033447266,,
76716,10.885713408348183,,,
76717,,14.61660099029541,6.064512729644775,-7.493851184844971
76756,10.51780136282353,,,
76757,,18.820819854736328,-1.2018892765045166,-5.0469770431518555
76796,8.042469307435072,,,
76797,,10.685321807861328,-0.5195417404174805,-8.02536392211914
76835,5.887823840263447,,,
76836,,10.42195987701416,-4.393360137939453,-0.7350199222564697
76875,5.329688595089762,,,
76876,,9.469067573547363,-4.309563159942627,-0.6775590777397156
76915,5.050588652795444,,,
76916,,11.319786071777344,4.9583916664123535,-0.8690952062606812
76955,5.561529353459321,,2.6647465229034424,
76956,,5.140350818634033,,-0.8930372595787048
76995,5.493299217087318,4.3622355461120605,0.29209262132644653,-0.35434186458587646
77034,5.116460431112475,,,
77035,,4.862623691558838,-1.45806884765625,1.1468225717544556
77074,4.627474354941326,,,
77075,,5.971138954162598,-2.231395959854126,2.365471363067627
77114,1.811146987502493,,,
77115,,9.222464561462402,-1.6065093278884888,1.6208745241165161
77154,3.165858985560645,,,
77155,,9.41400146484375,2.3247697353363037,-0.569819986820221
77194,8.72833621885718,10.84094524383545,-6.236895561218262,6.947973251342773
77234,11.007184889955294,,-11.116278648376465,-2.647987127304077
77235,,13.175292015075684,,
77274,10.603281240214372,,-1.6280571222305298,
77275,,18.6053409576416,,-5.602431774139404
77313,8.652431044988527,,,
77314,,14.00607967376709,-0.15562310814857483,-7.12035608291626
79531,1.8707368068247696,10.613495826721191,-3.1076738834381104,-1.161187767982483
79566,10.348772103269555,,-9.095572471618652,7.3238630294799805
79567,,13.352462768554688,,
79605,13.109032209277204,,-11.942277908325195,-8.200140953063965
79606,,13.680468559265137,,
79645,11.477377491909765,16.10100555419922,3.270479440689087,6.13633918762207
79685,7.912813500435593,13.558363914489746,0.36152446269989014,-4.086902141571045
79725,8.7531649723795,16.982072830200195,-1.0295066833496094,2.8203697204589844
79765,1.236496032594331,,,
79766,,8.686163902282715,-2.1571757793426514,0.6607996821403503
79805,4.23409931932382,,-1.944091796875,-0.3711012601852417
79806,,5.612008571624756,,
79845,7.75968819768507,,,
79846,,2.583343744277954,-0.7445967197418213,-1.7094600200653076
79885,8.15742151024457,,-0.2849099934101105,-1.2282254695892334
79886,,2.0207061767578125,,
79924,5.194008294946086,,,
79925,,5.0014872550964355,0.9145850539207458,2.298433542251587
79964,5.6477003025369,,,
79965,,8.971074104309082,3.3279404640197754,4.522646903991699
80004,7.107451394552602,,,
80005,,10.376470565795898,3.201047658920288,-4.522646903991699
80044,11.700742023119798,,5.353435039520264,4.733336925506592
80045,,19.01953887939453,,
80084,5.911909348903974,,4.225766181945801,
80085,,11.554417610168457,,-2.449268341064453
80123,13.652173304551184,,,
80124,,17.7937068939209,3.2345664501190186,-9.718064308166504
80163,9.097935503174435,,,
80164,,10.383652687072754,2.27209734916687,-8.446743965148926
80203,5.042366021361777,,,
80204,,12.229581832885742,-3.533841609954834,-0.23702596127986908
80243,5.109456379560247,,,
80244,,9.576807022094727,-4.256890773773193,-0.7422025203704834
80282,5.7402872068213515,,3.6822822093963623,
80283,,9.069235801696777,,-3.4404678344726562
80322,7.609833188528285,3.339911460876465,2.609679937362671,-1.7118542194366455
80362,6.838145848653781,,,
80363,,3.3686418533325195,0.4908113479614258,-1.5921441316604614
80401,4.25561354663757,,,
80402,,5.518634796142578,-1.235408067703247,-0.4429273009300232
80441,3.9611896983859687,,,
80442,,8.9064302444458,-3.157952070236206,2.628833532333374
80482,5.823748788991107,10.091560363769531,-3.0765492916107178,4.513070106506348
80521,0.2740787887952306,,-0.7805097699165344,
80522,,9.758766174316406,,-0.38067805767059326
80561,7.678244376583945,,-7.053318023681641,
80562,,7.845798969268799,,4.213795185089111
80601,8.795293364281235,15.840038299560547,-7.7428483963012695,-0.8667010068893433
80641,10.842618591912542,14.159308433532715,-6.236895561218262,-9.006986618041992
80680,8.180227995961847,,,
80681,,15.205574989318848,3.064578056335449,-2.7317841053009033
80720,7.862221901831732,,,
80721,,16.862361907958984,-0.6943184733390808,-1.482010841369629
80760,4.362286870171527,,,
80761,,13.785813331604004,-2.0254945755004883,0.3902548849582672
80800,3.2279506403612936,,,
80801,,6.754043102264404,-3.335123062133789,-0.2801215946674347
80839,5.626834146498991,,,
80840,,4.2090067863464355,-1.4628572463989258,-0.730231523513794
80879,6.297120953245593,,,
80880,,3.8115692138671875,0.1843535304069519,-1.1683704853057861
80919,7.3804740633581485,,,
80920,,2.5115175247192383,0.31842881441116333,-0.3495534360408783
80959,5.7493136452412665,,,
80960,,6.023811340332031,2.3319525718688965,3.3949780464172363
80999,4.6352703399993755,,2.980781078338623,
81000,,9.516951560974121,,3.1220390796661377
81038,4.8061945838858655,,,
81039,,10.608707427978516,1.5658079385757446,-4.005499362945557
81078,9.86731314560245,,2.650381326675415,
81079,,17.223886489868164,,6.277596950531006
94543,5.057618224590789,8.686163902282715,3.6559460163116455,3.778050184249878
94582,22.373855646801385,,,
94583,,14.58308219909668,9.342175483703613,-18.84236717224121
94622,7.609017553687481,,-2.3056161403656006,
94623,,14.686033248901367,,-4.422090530395508
94662,10.811325097609956,19.031509399414062,-4.333505153656006,1.6927006244659424
94702,2.2143228984822145,9.974244117736816,-1.0199298858642578,-0.016759412363171577
94741,8.387472402240132,,,
94742,,4.948814868927002,5.154716491699219,-3.095702886581421
94781,4.877614029607732,,,
94782,,5.51624059677124,0.9241618514060974,-0.5291185975074768
94821,8.473043444356989,,-2.497152328491211,
94822,,2.0685901641845703,,-2.367865562438965
94861,4.733643125864263,7.1490864753723145,-4.663905143737793,2.786850690841675
94901,2.6549155080680946,9.871294021606445,-3.5625722408294678,1.944091796875
94941,4.841296552911464,9.390059471130371,-3.6727054119110107,4.280832767486572
94980,7.844602014233657,,,
94981,,11.688492774963379,-9.033323287963867,2.5091233253479004
95021,5.769110063121534,,,
95022,,12.00452709197998,-6.3518171310424805,3.31118106842041
95061,9.367898514768818,8.75080680847168,-7.802703380584717,-7.589619159698486
95101,13.919915160874275,,3.8546648025512695,
95102,,20.688297271728516,,4.050989151000977
95141,13.344077613257232,21.404163360595703,-3.222595453262329,-4.32871675491333
95180,4.479819080241882,,,
95181,,13.012486457824707,-1.7741034030914307,-0.3232172429561615
100534,8.484547650177056,12.136208534240723,-0.7422025203704834,-6.435614109039307
100574,6.095521014181329,10.656591415405273,-0.05985504388809204,-3.3854012489318848
100614,5.346461450312052,13.522451400756836,0.38546648621559143,3.1196448802948
100653,1.5376834790920264,,,
100654,,8.65982723236084,-2.3080103397369385,0.10534487664699554
100693,5.163697384206319,4.503493309020996,-2.006340980529785,1.1659762859344482
100733,7.608978699815636,2.3080103397369385,-0.16759411990642548,-0.4141969084739685
100773,8.163717191411498,1.8794482946395874,-0.586579442024231,-0.9816226959228516
100813,4.305494284792044,7.275979042053223,1.3527239561080933,3.9217023849487305
100852,3.947747353552462,,,
100853,,10.666168212890625,3.1435868740081787,2.5905263423919678
100892,3.959620510760267,,,
100893,,10.81700325012207,0.2825157940387726,-3.047818660736084
100932,11.023064102131812,,,
100933,,18.950105667114258,4.414907932281494,4.99669885635376
100972,12.46044094328032,,,
100973,,16.800113677978516,7.548917770385742,-7.266402244567871
101012,6.986413577108799,,,
101013,,16.725893020629883,0.9768342971801758,-0.4165911078453064
101052,8.070113025426847,,,
101053,,10.627861022949219,3.090914487838745,-7.553706169128418
101092,8.047602174364481,,,
101093,,7.872135162353516,-6.311115741729736,1.5059528350830078
101131,4.366384033102921,12.49055004119873,-2.2625205516815186,-0.1604115068912506
101171,2.6081566621790557,10.340557098388672,2.8179752826690674,1.05105459690094
104529,5.602803666048641,,,
104530,,8.348581314086914,-5.556941986083984,-0.395043283700943
104566,3.2938675745440666,,,
104567,,12.90953540802002,-0.24660277366638184,0.0694318488240242
104606,5.393641946181033,5.813121795654297,1.9273324012756348,-0.47644615173339844
104646,8.596571802348288,2.535459518432617,2.123656988143921,-1.7334020137786865
104686,6.74492878621077,3.268085241317749,-0.37828385829925537,-0.7015010714530945
104725,1.68502972958653,,-2.849100112915039,
104726,,7.886500358581543,,0.5003881454467773
104765,3.4810632953538443,9.165003776550293,-3.5482068061828613,3.337517261505127
104805,4.298865172986086,,,
104806,,12.713211059570312,-0.811634361743927,2.4588451385498047
104845,3.235822123520308,12.20803451538086,-3.8977603912353516,0.5913678407669067
104884,10.483209172793742,,,
104885,,12.689269065856934,-9.038111686706543,7.769184589385986
104924,3.2727788658602917,,-4.469974517822266,0.040701430290937424
104925,,12.15296745300293,,
104964,7.789606593803724,16.75941276550293,-0.9768342971801758,1.5418659448623657
105004,8.760669851254285,7.070077419281006,-0.22505496442317963,-7.204153060913086
105044,6.526043874908179,14.997279167175293,0.08379705995321274,0.9289502501487732
105084,2.9905625355733334,12.320562362670898,-2.126051187515259,-0.08140286058187485
105124,3.29273604071904,6.775590896606445,-1.9153614044189453,-1.2425906658172607
105164,7.541920301131091,,0.45250412821769714,
105165,,2.406172752380371,,-0.1364694982767105
105203,8.035516577816468,,,
105204,,2.255337953567505,0.36152446269989014,-1.8626888990402222
105243,5.032401575072578,5.070919036865234,0.9097966551780701,1.623268723487854
105283,5.066449355601611,9.093177795410156,3.155557870864868,3.84269380569458
105322,3.325058504894932,,2.4420857429504395,
105323,,10.438719749450684,,-1.338358759880066
105363,8.640901806003589,17.817649841308594,1.280897855758667,3.5003228187561035
105402,4.720838274143706,12.344504356384277,3.8570590019226074,1.8531121015548706
105441,1.400359255813126,,,
105442,,11.183316230773926,0.6320692300796509,0.24660277366638184
105481,6.57766685793263,,,
105482,,11.034875869750977,5.717353820800781,-4.307168960571289
105522,4.562131683950934,,,
105523,,9.804255485534668,0.7757213711738586,-4.23773717880249
105561,7.4867018743940035,,,
105562,,8.38688850402832,-6.098031520843506,0.011971008032560349
105601,3.08093660010431,,,
105602,,11.796232223510742,-1.53707754611969,-0.7852981686592102
105641,4.6159352316452775,6.13633918762207,2.5234885215759277,-0.6057330369949341
105680,7.933659623218647,,,
105681,,3.2848446369171143,3.251325845718384,-2.1284453868865967
105720,6.36119589640359,,0.10295066982507706,-0.8164227604866028
105721,,3.598485231399536,,
105761,2.572051784516141,7.862558364868164,-2.6623523235321045,0.4668693244457245
121554,7.054716969847777,2.7557260990142822,-1.259350061416626,-0.608127236366272
121593,7.630667409442335,2.2816741466522217,-0.8259995579719543,-1.280897855758667
121633,6.152835111826911,5.537788391113281,1.7334020137786865,3.579331636428833
121672,7.142379177995637,,,
121673,,8.729259490966797,4.728548526763916,4.654327869415283
121712,2.1097343986360193,,,
121713,,11.24795913696289,1.091755986213684,-1.2282254695892334
121752,3.9753492861661206,12.33013916015625,2.0254945755004883,2.233790159225464
121792,7.747514141472377,,2.3942017555236816,6.495469093322754
121793,,13.333309173583984,,
121832,5.745682795680094,12.842497825622559,3.663128614425659,-4.027047157287598
121871,5.40412481797171,,,
121872,,14.07311725616455,3.7660791873931885,-2.2002713680267334
121911,7.167354048063551,,,
121912,,11.903970718383789,1.7860745191574097,-7.292738437652588
121951,6.986442242917567,,,
121952,,7.309497833251953,-4.843470096588135,-0.47884035110473633
121991,4.048950605660691,,,
121992,,9.674968719482422,-2.626439332962036,-0.9864110946655273
122031,3.174682577290639,,2.2912509441375732,-1.1827356815338135
122032,,7.513004779815674,,
122071,6.881627443028897,,,
122072,,3.4739866256713867,2.1978771686553955,-1.4197616577148438
122110,4.632653785289848,,,
122111,,5.2480902671813965,-0.12928688526153564,-0.9241618514060974
122151,4.335812128677342,7.295132637023926,-3.469198226928711,1.6519991159439087
122190,6.285110122577781,,,
122191,,8.245630264282227,-5.243301868438721,3.536235809326172
122230,2.8806854092071297,,,
122231,,9.916783332824707,-1.5155296325683594,2.2912509441375732
122270,3.496110116930963,,,
122271,,11.262324333190918,-2.9520506858825684,-2.252943754196167
122310,12.708297445944888,,,
122311,,13.922283172607422,-7.268796443939209,10.101137161254883
122350,7.841998265626925,,,
122351,,12.51449203491211,-4.965574264526367,-6.435614109039307
122390,8.048948269016561,,,
122391,,17.286136627197266,0.7158663272857666,-0.7206547260284424
122431,9.209878046841625,,,
122432,,10.089165687561035,0.8738836050033569,-8.681375503540039
122470,6.024724563064358,,,
122471,,15.10023021697998,-0.033518824726343155,1.5131354331970215
122509,1.4559748606607528,,,
122510,,11.013327598571777,-1.2617442607879639,0.1628057211637497
122549,4.038766639838125,,-2.698265314102173,
122550,,6.057330131530762,,-0.2513911724090576
122589,6.239951333565324,,,
122590,,3.584120035171509,-1.3838485479354858,-0.17238251864910126
122630,7.722661436597272,2.1164743900299072,-0.1173158809542656,-0.44532153010368347
122669,6.15386327961226,,0.8762778043746948,
122670,,3.751713991165161,,0.6584054827690125
122709,5.979973750742583,8.224082946777344,3.2585084438323975,4.534617900848389
122749,2.941035962955977,11.245565414428711,2.3127987384796143,1.0223240852355957
122788,5.056611392163957,,2.8874073028564453,
122789,,13.848062515258789,,1.0989385843276978
122827,6.5219979348177946,14.300566673278809,2.5450363159179688,4.23773717880249
122867,3.396983429723196,10.682928085327148,1.5945383310317993,-3.1483752727508545
122907,4.032389398466405,13.084312438964844,3.397372245788574,-0.1843535304069519
122947,6.540959637898642,10.83855152130127,2.449268341064453,-6.378153324127197
122988,7.2863830024437215,7.225700855255127,-5.298368453979492,-0.23702596127986908
123026,3.1847751414693617,,-1.8938134908676147,
123027,,10.843339920043945,,-0.40701428055763245
123067,3.662930637078838,7.546523571014404,2.9448680877685547,-0.8020575642585754
123107,6.923982389854105,3.5889084339141846,2.3582887649536133,-1.4197616577148438
123146,6.144466683545067,4.094084739685059,0.009576806798577309,-1.9967641830444336
123185,3.984426700032225,7.139509677886963,-2.80361008644104,1.8746598958969116
123225,5.789057228405158,9.188945770263672,-4.632780075073242,3.7660791873931885
123264,2.508259861103461,,,
123265,,10.14902114868164,-2.078166961669922,1.5705963373184204
123304,3.777756014617864,,,
123305,,12.0021333694458,-3.624821424484253,-0.8547300100326538
123344,12.174955984423773,14.00368595123291,-6.962338447570801,9.763554573059082
123384,7.728086685721213,11.365275382995605,-4.496310710906982,-6.854599475860596
123424,7.786190563348005,17.099388122558594,0.08379705995321274,-1.1875240802764893
123463,8.662902699367628,8.908824920654297,0.9720458984375,-8.109161376953125
123504,5.491676795189894,14.731523513793945,-0.5291185975074768,0.727837324142456
123543,3.2985974192195737,,,
123544,,12.859257698059082,-2.322375535964966,0.4118026793003082
123584,3.264547215797303,6.627150535583496,-2.33913516998291,-0.2298433631658554
123623,6.790871540479681,3.0166940689086914,-0.5626373887062073,-0.5051765441894531
123663,8.497705486492,1.723825216293335,-1.1037269830703735,-2.2601263523101807
123702,6.031137099716451,,,
123703,,4.168305397033691,1.0893617868423462,1.745373010635376
123743,6.698991545892082,7.747636795043945,4.845864295959473,3.818751811981201
123783,3.817942627313373,11.142614364624023,3.397372245788574,0.9002198576927185
123823,4.772169078866041,14.45619010925293,0.993593692779541,-0.08140286058187485
123863,8.49987927519392,,,
123864,,15.255853652954102,1.8076223134994507,6.303933143615723
123902,4.281487228615069,,,
123903,,11.975796699523926,2.293645143508911,-3.490746021270752
133529,5.34383673346553,,,
133530,,14.45619010925293,3.4189200401306152,0.5171475410461426
133557,7.796379853390891,15.67723274230957,-3.3518824577331543,-2.8634653091430664
133596,6.568175268754937,,,
133597,,14.410699844360352,-1.9560627937316895,2.896984100341797
133636,4.912241781888435,6.936002254486084,-2.4181437492370605,-1.8555063009262085
133676,4.1499976836048695,6.119579315185547,2.2601263523101807,1.4508862495422363
133715,8.041519190040466,,,
133716,,1.9967641830444336,0.7733271718025208,-3.0621838569641113
133755,8.765551017680217,,,
133756,,1.192312479019165,0.30885201692581177,1.2114660739898682
133795,4.254247674472754,6.979097843170166,1.845929503440857,2.118868589401245
133835,2.2599619629283714,10.644620895385742,3.4356794357299805,-0.646434485912323
133875,9.030530221101015,17.590200424194336,3.7421371936798096,2.008735179901123
133914,6.453865655324153,,,
133915,,12.789825439453125,1.2330138683319092,4.108449935913086
133954,3.7917629411373053,,-0.4429273009300232,
133955,,11.544840812683105,,-3.622427225112915
133994,7.092166942458226,,1.9560627937316895,-3.1914708614349365
133995,,16.350004196166992,,
134034,3.7672058839163496,,1.072602391242981,-4.350264549255371
134035,,10.879252433776855,,
134074,9.31509916145262,,,
134075,,6.936002254486084,-6.299144744873047,1.7405846118927002
134114,4.081034240160251,12.418724060058594,-1.048660397529602,-2.3582887649536133
134154,6.285161105498435,,4.58968448638916,
134155,,4.747702121734619,,-0.5171475410461426
134193,6.166359902389803,,,
134194,,3.773261785507202,1.7262194156646729,-0.47644615173339844
134233,6.6236925094479435,,,
134234,,3.1675288677215576,-0.19871874153614044,-0.5291185975074768
134273,4.121425582759989,,,
134274,,8.286332130432129,-2.6001031398773193,2.2242133617401123
134313,5.079598456605273,,,
134314,,11.906365394592285,-1.9393033981323242,3.0358476638793945
134353,1.9742767627375906,,,
134354,,10.17296314239502,-2.205059766769409,-0.811634361743927
134394,9.712269084841461,8.99740982055664,-8.822632789611816,4.661510944366455
134434,7.838719430388462,,-6.809109687805176,1.522712230682373
134435,,14.741100311279297,,
134473,7.809714835574233,,,
134474,,15.526397705078125,-4.050989151000977,-4.965574264526367
134512,4.03500167979001,11.84650993347168,-0.7398083209991455,-3.8331170082092285
134531,6.881528771459281,,,
134532,,8.803479194641113,-0.47405192255973816,-7.352593421936035
134552,4.885559969212184,11.939884185791016,1.3407529592514038,-3.31118106842041
134572,8.319467019836104,16.005237579345703,3.339911460876465,0.3902548849582672
134592,7.454789269767498,15.358803749084473,2.542642116546631,1.3646949529647827
134611,2.9961790547666967,,,
134612,,12.124237060546875,0.15322890877723694,-0.1149216815829277
134631,1.263878594637205,,,
134632,,8.592789649963379,-1.580173134803772,-0.6272808313369751
134651,5.472707831216589,,,
134652,,4.955997467041016,-2.212242364883423,1.4748282432556152
134671,7.839319931040012,2.3918075561523438,-3.1244332790374756,-1.0654197931289673
134691,9.10424953629571,,-2.7269957065582275,
134692,,1.434126853942871,,-2.940079689025879
134711,7.750774713987769,,,
134712,,2.0829553604125977,-1.1994950771331787,-0.15562310814857483
134731,7.731283167133409,2.1739351749420166,-0.4572925269603729,1.0654197931289673
134751,5.95822093653094,4.185064792633057,0.4668693244457245,1.5729905366897583
134771,4.4129885827181985,6.0836663246154785,1.5131354331970215,1.2665326595306396
134791,4.2537073906830685,7.60637903213501,2.8634653091430664,1.5322890281677246
134810,6.325244690756969,,,
134811,,9.684545516967773,3.3949780464172363,4.632780075073242
134831,8.400039363950503,,,
134832,,11.379640579223633,3.4308910369873047,6.866570472717285
134851,4.831236790173867,,1.482010841369629,3.514688014984131
134852,,12.112266540527344,,
134871,3.9538995639855297,,,
134872,,11.30063247680664,-3.1052796840667725,-2.0614075660705566
134891,2.872463268181298,,-1.3000515699386597,
134892,,10.821791648864746,,-2.2601263523101807
134911,7.346925219482233,,4.632780075073242,
134912,,13.872004508972168,,4.223371982574463
134931,10.919665985029459,16.060304641723633,4.156333923339844,8.094796180725098
134951,7.253503413356757,13.105859756469727,6.466738700866699,-1.8507179021835327
134970,8.849508291259482,,,
134971,,12.892776489257812,6.871358871459961,-5.449203014373779
134990,10.567423558929969,16.792930603027344,2.322375535964966,-7.860164165496826
135010,6.638492879224887,16.201562881469727,2.5115175247192383,-0.05506663769483566
135031,5.717899446866188,11.374852180480957,0.9409212470054626,-6.1052141189575195
135050,7.7099440532786945,,,
135051,,12.222399711608887,1.623268723487854,-7.783549785614014
135070,3.696601368700329,,,
135071,,11.444284439086914,0.043095629662275314,-3.0119056701660156
135090,5.548060846502509,7.740454196929932,-3.3207578659057617,-1.2210428714752197
135109,6.3772665744174155,,,
135110,,5.925649166107178,-3.2106244564056396,-1.625662922859192
135130,3.2677066866613456,,-1.778891921043396,
135131,,9.253589630126953,,0.38546648621559143
135150,2.181424231798379,11.616666793823242,0.9672574996948242,-1.3958195447921753
135170,1.8686350554261342,,1.9919757843017578,
135171,,9.368511199951172,,-1.1875240802764893
135190,4.861021688940665,5.351040840148926,2.1164743900299072,-0.5578489899635315
135210,7.176888236691644,2.784456491470337,1.3239935636520386,-0.689530074596405
135229,6.945907035242865,,,
135230,,3.3949780464172363,0.7206547260284424,-2.387019157409668
135250,6.042035041189751,4.101267337799072,-0.15322890877723694,-1.8986018896102905
135269,4.352351611925788,,,
135270,,5.758055210113525,-1.460463047027588,-1.1228805780410767
135289,3.7115743953870406,,,
135290,,7.015010833740234,-2.3080103397369385,1.235408067703247
135309,4.8614885940519965,,-3.2848446369171143,3.2106244564056396
135310,,8.33182144165039,,
135330,6.565811629550176,9.366117477416992,-4.568136692047119,4.489128112792969
135349,6.383105342501921,10.15141487121582,-3.6822822093963623,4.795586109161377
135369,3.5370066484081972,,,
135370,,9.93354320526123,-2.6240451335906982,2.1811177730560303
135389,1.870574560584673,9.68694019317627,-1.6543933153152466,-1.6065093278884888
135409,3.5033530114296036,11.05642318725586,-3.026270866394043,-1.9393033981323242
135429,8.983368659672491,10.515334129333496,-6.054935932159424,7.261613845825195
135449,11.30106749767092,13.816938400268555,-5.817910194396973,9.390059471130371
135468,6.772923011115803,,,
135469,,14.24071216583252,-5.781997203826904,-1.800439715385437
135488,6.594719838054657,,,
135489,,12.543222427368164,-2.8179752826690674,-5.568912982940674
135508,6.921640775347217,,,
135509,,14.94221305847168,-4.886565685272217,-2.832340717315674
135529,7.591448902254884,,-0.646434485912323,
135530,,17.183185577392578,,-0.2322375625371933
135549,5.323635682318218,13.079524040222168,-0.8643068075180054,-3.907337188720703
135567,9.440446204292083,,,
135568,,8.044517517089844,-0.42377370595932007,-8.863334655761719
135588,4.342581832018072,,,
135589,,11.30302619934082,-0.24181437492370605,-3.0885202884674072
135608,7.3015466802137095,,,
135609,,16.15367889404297,0.5315127968788147,2.2840683460235596
135628,7.680243067471202,,,
135629,,16.077064514160156,-0.06464344263076782,3.957615375518799
135648,2.5024715604128347,,-1.436521053314209,0.35913026332855225
135649,,12.121843338012695,,
135667,1.7058599368531893,,,
135668,,8.918401718139648,-2.736572504043579,-0.545877993106842
135687,4.607031895852719,,,
135688,,5.386953830718994,-2.056619167327881,-0.7493851184844971
135708,6.2106964256476695,3.5458126068115234,-0.9097966551780701,0.4836287498474121
135728,7.069031252607517,2.7748796939849854,-0.5746083855628967,-0.3447650372982025
135747,7.260098757321725,,,
135748,,2.719813108444214,-0.6560112833976746,-0.9720458984375
135766,8.045716789372166,,,
135767,,2.0015525817871094,-0.7493851184844971,-1.235408067703247
135788,8.53019869967617,,-0.8786720037460327,
135789,,1.6352397203445435,,-1.6041151285171509
135807,5.867730045758119,4.043806552886963,0.6847416758537292,1.6950948238372803
135827,6.784226568523242,,,
135828,,6.246472358703613,2.6360161304473877,5.461174011230469
135846,6.009411424198147,,,
135847,,8.614337921142578,3.292027235031128,5.061342239379883
135866,3.9489149510683923,,2.8993782997131348,
135867,,10.20648193359375,,2.87064790725708
135886,2.6566519937943682,,1.4077905416488647,
135887,,11.468226432800293,,-1.3838485479354858
135907,4.9061773015364345,12.425907135009766,-1.3479355573654175,-3.60566782951355
135926,6.347994882794285,,,
135927,,14.602235794067383,3.1483752727508545,3.0837318897247314
135946,11.377708028870945,,,
135947,,17.899051666259766,1.9105730056762695,8.109161376953125
135966,5.960455278762433,14.065935134887695,4.211400985717773,1.3766659498214722
135986,9.210365957140526,14.247894287109375,6.995857238769531,-4.929661273956299
136006,5.983181269138119,15.004462242126465,0.9145850539207458,-3.0406360626220703
136026,9.014326772322109,18.169597625732422,3.847482204437256,-1.7597382068634033
136045,4.629560129844909,,,
136046,,10.17296314239502,3.428496837615967,-4.553771495819092
136065,8.589105634214958,,,
136066,,12.418724060058594,3.488351821899414,-8.224082946777344
136085,2.921048623792667,,,
136086,,10.599130630493164,0.7733271718025208,-2.691082715988159
136105,6.360890650734806,,,
136106,,8.69334602355957,-4.431667327880859,0.7350199222564697
136126,8.145664639364439,,,
136127,,7.3454108238220215,-6.045359134674072,-0.4644751250743866
136145,5.282682506696076,,,
136146,,10.287884712219238,-3.823540210723877,-0.09816227108240128
136165,2.888626975225765,,,
136166,,11.262324333190918,0.014365210197865963,-2.22660756111145
136185,3.404579803037947,7.903259754180908,2.494758129119873,-1.7262194156646729
136205,6.213876319265842,4.656722068786621,3.56017804145813,-0.6009446382522583
136225,8.127691674038957,2.382230758666992,3.045424461364746,-0.9744400978088379
136244,7.568646919940873,,,
136245,,3.141192674636841,2.0254945755004883,-2.5067291259765625
136265,6.25970224714406,,,
136266,,3.84269380569458,0.8212111592292786,-1.3623007535934448
136284,4.071896294328074,,,
136285,,5.781997203826904,-0.9959878921508789,-0.16759411990642548
136305,3.4174960610646763,7.400477409362793,-2.6192567348480225,0.9983820915222168
136324,4.884633449518728,,-3.9456443786621094,
136325,,7.987056732177734,,2.655169725418091
136344,6.389165063316085,,-5.080495834350586,
136345,,8.377311706542969,,3.823540210723877
136364,6.336314687543547,,,
136365,,9.603142738342285,-4.548983097076416,4.381389141082764
136383,4.527732588861696,,,
136384,,10.575188636779785,-2.5689783096313477,3.5027170181274414
136404,0.9758107458074546,,-0.17238251864910126,
136405,,10.54645824432373,,-0.6847416758537292
136423,2.040811424444111,10.508151054382324,-0.6200982332229614,-1.8555063009262085
136443,7.133510125129302,,-6.509834289550781,
136444,,10.201693534851074,,4.218583583831787
136462,12.399594921755824,,-7.644686222076416,
136463,,11.78665542602539,,10.316615104675293
136482,10.019340504397801,15.148114204406738,-7.996633529663086,4.948814868927002
136502,9.649289483512302,,,
136503,,12.756306648254395,-5.410895824432373,-7.970297336578369
136522,7.933617070143594,,,
136523,,12.914323806762695,-7.644686222076416,-3.756502389907837
136543,9.095895415819562,17.956512451171875,-0.3998316824436188,-3.157952070236206
136562,8.756009463288137,,,
136563,,17.757793426513672,0.9720458984375,-0.2944868206977844
136582,10.082208323706528,,0.4429273009300232,-9.239224433898926
136583,,10.673351287841797,,
136602,6.250801340229869,,-0.7469909191131592,
136603,,12.816162109375,,-4.28322696685791
136623,6.268228727139145,,,
136624,,15.186421394348145,0.08140286058187485,1.1563993692398071
136642,5.597433741979409,,,
136643,,14.156914710998535,0.2106897532939911,2.5450363159179688
136661,1.4773149137542188,,,
136662,,10.223240852355957,-0.7805097699165344,0.19393034279346466
136682,2.2839175787850468,7.529764175415039,-1.6855180263519287,-0.26336219906806946
136702,5.503768843376622,,,
136703,,4.201824188232422,-1.53707754611969,0.5482721924781799
136722,7.078287219615979,2.80361008644104,-1.9345149993896484,-0.2513911724090576
136742,7.749565850679859,2.4181437492370605,-1.6208745241165161,-1.436521053314209
136762,7.943819188882893,2.1595699787139893,-1.6065093278884888,-1.2210428714752197
136782,8.85071734091257,,-1.3910311460494995,-1.0965443849563599
136783,,1.1827356815338135,,
136801,6.6062777862397555,,-0.15322890877723694,
136802,,3.1675288677215576,,0.6200982332229614
136821,5.99111025600509,,,
136822,,5.1331682205200195,1.889025092124939,3.6176388263702393
136841,6.349041916065221,,,
136842,,7.141903877258301,3.936067581176758,4.216189384460449
136861,7.096948919075079,,,
136862,,10.381258964538574,5.125985622406006,4.850652694702148
136881,5.300238427611193,,,
136882,,11.856086730957031,3.936067581176758,2.918531894683838
136902,3.180746815875426,11.951854705810547,0.3519476354122162,-1.7286136150360107
136922,4.810551632914821,12.768278121948242,-0.7637503147125244,-3.021482467651367
136941,8.80087617500405,13.9462251663208,6.028599739074707,5.530605792999268
136960,11.457078529777998,,,
136961,,16.723499298095703,1.9800047874450684,9.658209800720215
136981,5.154851180406538,13.062764167785645,4.299986362457275,0.10534487664699554
137001,6.767267252510021,12.887988090515137,5.149928092956543,-3.648763418197632
137020,7.539137892271994,,,
137021,,14.121001243591309,-1.01753568649292,-5.497087001800537
137041,8.630453403625353,17.877504348754883,3.7636849880218506,-0.7493851184844971
137060,6.605982132806964,,,
137061,,12.109871864318848,4.941632270812988,-5.066130638122559
137080,8.399103352965069,,2.8850131034851074,
137081,,12.765883445739746,,-7.783549785614014
137101,3.924072379546151,11.719616889953613,-0.8068459630012512,-2.1978771686553955
137121,6.904715665339845,9.263166427612305,-5.104437828063965,1.0247182846069336
137140,8.046149182223608,,,
137141,,7.096413612365723,-5.940014362335205,0.586579442024231
137160,4.255933322412866,,,
137161,,9.99339771270752,-2.8874073028564453,0.09816227108240128
137179,3.279172984742828,,,
137180,,11.858481407165527,0.8355764150619507,-2.22660756111145
137199,3.6740967866777785,,,
137200,,7.8529815673828125,2.4372973442077637,-1.7693150043487549
137219,6.243965592733691,,,
137220,,4.879383087158203,3.552995204925537,-1.048660397529602
137240,8.138968798954298,,,
137241,,2.6575639247894287,3.332728862762451,-1.2425906658172607
137259,7.791915508791313,,2.537853717803955,
137260,,2.9951462745666504,,-1.9560627937316895
137278,7.691385419283625,,,
137279,,2.477998733520508,1.2066776752471924,-1.2401964664459229
137300,6.290457131372159,3.687070608139038,-0.8978256583213806,-0.8906430602073669
137319,4.746266554210086,,,
137320,,6.107608318328857,-3.4404678344726562,0.7709329724311829
137338,5.348073180994028,,-4.867412090301514,
137339,,7.975085735321045,,2.734178304672241
137359,5.860335858716045,9.136273384094238,-5.128379821777344,3.576937437057495
137379,5.38937071430116,10.893617630004883,-3.799597978591919,3.890577793121338
137398,4.163373994000061,,-2.0039467811584473,
137399,,11.75553035736084,,3.0789434909820557
137418,1.7212258972607997,,,
137419,,11.463438034057617,-0.8092401623725891,0.21787235140800476
137437,4.00363447057783,,,
137438,,12.418724060058594,-3.4404678344726562,-0.7829039692878723
137457,8.88033639287857,,,
137458,,9.397241592407227,-6.495469093322754,7.005434036254883
137477,11.09347937885152,12.737153053283691,-6.72531270980835,9.282320022583008
137497,7.578259150310682,13.903129577636719,-6.636727333068848,-2.8586769104003906
137517,6.996370191879244,,-5.353435039520264,
137518,,11.899182319641113,,-4.920084476470947
137537,9.854929167997607,14.341268539428711,-6.088454723358154,-7.101202011108398
137556,7.841886382583818,,,
137557,,16.814477920532227,1.259350061416626,0.6847416758537292
137576,7.09170812048565,,,
137577,,15.10023021697998,2.4229321479797363,0.11971008777618408
137596,7.950777977838449,,,
137597,,9.452308654785156,0.4165911078453064,-6.933608055114746
137617,5.773326495888224,13.654131889343262,-1.0007762908935547,-3.0190882682800293
137636,6.88811531987612,,,
137637,,15.974113464355469,-0.6248866319656372,2.6599581241607666
137656,5.856552054351778,,-1.4437036514282227,
137657,,14.45858383178711,,3.818751811981201
137676,0.8266975047399513,,,
137677,,9.923966407775879,-2.5306711196899414,0.6536170840263367
137696,2.847001449171903,,-2.5306711196899414,
137697,,7.0772600173950195,,0.4381389021873474
137716,5.424329042913593,,-2.1811177730560303,
137717,,4.477157115936279,,-0.11971008777618408
137736,7.099529315229478,,-1.335964560508728,
137737,,3.181894063949585,,-1.7118542194366455
137755,8.22213338970047,,,
137756,,2.118868589401245,-1.161187767982483,-2.0183119773864746
137778,8.528219614031773,,-1.1252747774124146,
137779,,1.8818424940109253,,-2.2409727573394775
137795,8.717529211408346,,-0.5746083855628967,
137796,,1.4748282432556152,,-1.7525556087493896
137815,6.956468648293292,2.959233283996582,1.192312479019165,0.8403648138046265
137838,6.705171428312377,,,
137839,,4.963180065155029,2.674323320388794,4.240131378173828
137855,6.560207002676726,7.134721279144287,3.8331170082092285,4.807557106018066
137874,5.587478958534032,9.739612579345703,4.134786128997803,3.955221176147461
137894,3.674552298542853,11.446678161621094,3.177105665206909,-0.24420857429504395
137914,4.759939535702625,11.887211799621582,0.031124621629714966,-3.799597978591919
137934,4.615770564692724,13.603854179382324,2.2601263523101807,1.6639702320098877
137973,6.7048980573148445,,,
137974,,15.210363388061523,1.1204863786697388,4.127603530883789
138013,6.665905463948381,,,
138014,,12.574347496032715,0.5003881454467773,-6.011840343475342
138053,4.873857608848765,,,
138054,,14.415488243103027,2.343923568725586,-0.38546648621559143
138093,5.921117084888542,13.21359920501709,0.35434186458587646,-4.707000732421875
138133,7.792451815561747,7.180211067199707,-5.6910176277160645,1.889025092124939
138173,3.220330304092432,10.706870079040527,-0.2585737705230713,-2.5330653190612793
138213,8.685207585921415,2.6623523235321045,4.4077253341674805,-1.4245500564575195
138253,6.108784288497871,,,
138254,,4.900930881500244,2.070984363555908,-1.8555063009262085
138293,3.5768619623634814,6.212953567504883,-0.933738648891449,0.304063618183136
138339,5.341303036473535,,,
138340,,7.117961883544922,-4.584896087646484,2.693476915359497
138371,5.35203650387117,,,
138372,,9.59835433959961,-4.041412353515625,3.995922565460205
138411,1.7482211745329734,,,
138412,,11.252747535705566,0.2825157940387726,-0.40701428055763245
138451,7.572481488330842,,-6.433219909667969,5.250484466552734
138452,,9.895236015319824,,
138491,10.005359739196896,16.170438766479492,-8.554482460021973,1.6519991159439087
