relative_time,LinearAccelerometerSensor,AccX,AccY,AccZ
0,8.392242900784135,13.88158130645752,9.222464561462402,-1.0773907899856567
20,6.177991246042814,15.552734375,2.2649147510528564,0.9457096457481384
39,9.774588074260949,,,
40,,18.993202209472656,0.3926490843296051,-0.8140285611152649
60,5.651372165654668,9.600749015808105,3.3494882583618164,-5.992686748504639
80,4.875994263029909,9.107542991638184,5.298368453979492,-4.199429988861084
100,4.639051176926544,,,
101,,7.666234016418457,3.8810009956359863,-3.9025487899780273
120,6.069417565948462,6.18182897567749,-2.051830768585205,
121,,,,2.049436569213867
140,9.022541216309294,6.44279670715332,-5.643133640289307,-1.3718775510787964
160,8.408627992677419,10.228029251098633,-5.458779811859131,-2.8203697204589844
180,5.7391596901440725,14.065935134887695,-1.5298948287963867,-0.8643068075180054
200,2.684132972970854,11.896788597106934,0.6727706789970398,0.8738836050033569
219,1.8705156743367464,,,
220,,8.51138687133789,1.845929503440857,1.1899182796478271
240,3.8818984615640777,6.524199485778809,3.2752678394317627,-0.3974374830722809
259,6.529170677250367,,,
260,,4.022258758544922,3.9432501792907715,-0.9911994934082031
279,7.303896023715298,2.801215887069702,2.8586769104003906,-0.9481038451194763
299,6.708722816044032,,0.6057330369949341,
300,,3.1100680828094482,,-0.727837324142456
319,3.824637806018892,6.260837554931641,-0.8834604024887085,-0.12449848651885986
339,3.149249632335477,8.317456245422363,-1.9800047874450684,1.0989385843276978
359,4.51289977101882,8.068459510803223,-2.9448680877685547,
360,,,,2.0254945755004883
379,5.314068372005908,8.860940933227539,-3.6535518169403076,2.7246015071868896
398,4.708441989061293,,,
399,,10.211270332336426,-2.849100112915039,2.806004285812378
418,2.105475997204596,,-0.4620809257030487,
419,,10.668562889099121,,1.2210428714752197
438,2.6007900064858975,,,
439,,11.104307174682617,2.4420857429504395,-1.290474772453308
458,2.566512989628893,,0.019153613597154617,
459,,12.255918502807617,,-0.6320692300796509
478,7.156237206593368,,,
479,,11.27190113067627,-4.843470096588135,4.709394931793213
498,9.715742130254464,,,
499,,13.03164005279541,-6.145915985107422,6.682217121124268
518,7.590261654973879,13.038822174072266,-6.555324077606201,
519,,,,2.4205379486083984
538,5.262606788693446,9.926360130310059,-4.486733913421631,-2.940079689025879
558,3.120924772001901,11.834539413452148,-2.4875755310058594,1.3838485479354858
578,8.126511653248928,16.546327590942383,-4.716577529907227,-1.9560627937316895
597,6.57106287750223,,,
598,,15.82567310333252,-2.2385785579681396,-2.248155355453491
617,4.6204130779074335,,,
618,,10.575188636779785,0.7852981686592102,-4.027047157287598
638,6.871766873385491,,1.8531121015548706,
639,,6.112396717071533,,-4.558559894561768
656,3.7392025951214896,10.87446403503418,0.9888052940368652,-2.3918075561523438
676,6.600388209167606,15.088258743286133,2.477998733520508,1.9033904075622559
696,6.22341330042527,,,
697,,14.494497299194336,1.0534487962722778,3.509899616241455
716,3.1723115366936843,12.564770698547363,-0.3998316824436188,1.3646949529647827
736,1.292266378336187,,,
737,,10.218452453613281,-1.4197616577148438,0.4572925269603729
756,4.140308987056495,,-2.557007312774658,
757,,6.828263282775879,,-1.1779472827911377
776,6.012889686058525,,,
777,,4.513070106506348,-2.4133553504943848,-0.8164227604866028
796,7.902496773882953,,,
797,,2.209848165512085,-1.3503297567367554,-0.950498104095459
816,9.474151782716653,0.8355764150619507,-1.0199298858642578,-2.0829553604125977
836,9.060182051355863,1.0606313943862915,-0.33518823981285095,-1.5610195398330688
856,7.090555555693708,2.784456491470337,1.0797849893569946,-0.4620809257030487
875,5.251163898607532,,2.964021682739258,
876,,5.719748020172119,,2.8610711097717285
896,5.287909467998487,8.485051155090332,3.974374771118164,4.072536945343018
916,4.98265500422348,11.183316230773926,3.8283286094665527,3.579331636428833
936,4.421598284255265,13.03164005279541,2.7030537128448486,2.1523873805999756
955,3.159614205289869,12.832921028137207,1.1851298809051514,0.7015010714530945
975,3.2516599964077995,12.904747009277344,-0.08140286058187485,-0.35913026332855225
994,7.298862880821049,,,
995,,16.572664260864258,1.7357962131500244,2.760514497756958
1014,6.769864276105876,,2.4205379486083984,
1016,,13.278243064880371,,
1017,,,,5.880159378051758
1035,3.8019208620796032,9.473855972290039,4.642356872558594,1.2545616626739502
1055,5.751772068457706,10.038887977600098,6.916848659515381,1.0965443849563599
1075,6.77639470120243,16.28536033630371,0.5003881454467773,-1.0965443849563599
1095,13.495489991922128,22.989124298095703,3.7397429943084717,-0.42616790533065796
1115,8.873180793962431,7.2783732414245605,4.2760443687438965,-8.08282470703125
1134,6.6735940545541474,,,
1135,,8.339004516601562,4.812345504760742,-5.398924827575684
1155,4.2056999402364275,8.04691219329834,2.564189910888672,-3.177105665206909
1175,4.138787318838824,7.2568254470825195,-1.2521674633026123,1.7621324062347412
1193,7.648716548392056,,,
1194,,6.789956092834473,-4.900930881500244,-1.6184803247451782
1213,6.123559587784419,,-4.10366153717041,
1214,,11.458649635314941,,-0.7182605266571045
1233,5.927021940301094,15.40429401397705,-0.3758896589279175,
1234,,,,-0.28730419278144836
1254,3.0547616466684504,12.797008514404297,1.2641384601593018,-0.2082955539226532
1273,2.563572542846034,8.394071578979492,2.784456491470337,0.4884171485900879
1293,7.002589155648966,,,
1294,,4.041412353515625,4.182670593261719,-1.2952631711959839
1313,8.77511175796332,,,
1314,,2.1930887699127197,3.8067808151245117,-2.4181437492370605
1333,8.464474658110388,,2.0231003761291504,
1334,,1.9369091987609863,,-2.2673089504241943
1353,7.315108135725234,2.650381326675415,-0.11971008777618408,-1.1635819673538208
1373,4.303390168972729,5.940014362335205,-1.7573440074920654,-0.12449848651885986
1393,3.6124434206006626,,,
1394,,8.686163902282715,-2.779668092727661,1.800439715385437
1412,5.102177114106383,,,
1413,,9.344569206237793,-3.737348794937134,2.956839084625244
1432,5.463949832512813,10.436325073242188,-3.3518824577331543,
1433,,,,3.5673606395721436
1452,4.872586949112367,11.291055679321289,-1.7836803197860718,3.600879430770874
1472,2.4494539236176256,11.025299072265625,-0.17956513166427612,1.6639702320098877
1492,2.1814028098895766,11.860875129699707,-0.31603461503982544,-0.7996633648872375
1512,6.448083862043309,11.719616889953613,-5.216965675354004,3.378218650817871
1532,9.428531250310726,10.802638053894043,-6.208165168762207,7.273584842681885
1552,8.883098507104043,14.372392654418945,-7.924807548522949,1.7501614093780518
1571,6.078957782561742,,-5.2265424728393555,
1572,,11.463438034057617,,-3.6080620288848877
1592,6.456700994465641,15.026009559631348,-4.323928356170654,-1.6352397203445435
1612,10.574607636227277,20.28607177734375,-1.7621324062347412,0.2849099934101105
1631,6.441379008053371,,,
1632,,15.21275806427002,1.161187767982483,-2.075772762298584
1652,10.277755746445512,5.451597213745117,0.1173158809542656,-8.667010307312012
1671,6.244025159238949,,,
1672,,7.287950038909912,-0.08858546614646912,-4.809951305389404
1691,5.172659915242339,,,
1692,,13.606247901916504,1.6855180263519287,-0.12928688526153564
1711,7.286593199857192,,,
1712,,15.409082412719727,1.8986018896102905,3.313575267791748
1731,4.086730763325274,,,
1732,,13.692439079284668,-0.6416460275650024,0.8954314589500427
1751,1.8310740884388854,11.382035255432129,-1.599326729774475,
1752,,,,-0.4668693244457245
1771,1.152916717327095,,,
1772,,9.48343276977539,-1.6831238269805908,0.1628057211637497
1792,3.2607149875325554,6.979097843170166,-1.9297266006469727,0.2968810200691223
1811,5.627165314031172,4.240131378173828,-0.9409212470054626,
1812,,,,0.15083470940589905
1830,8.248266789410783,,,
1831,,1.678335428237915,-0.45010992884635925,-0.9313444495201111
1850,9.333047817041107,0.8068459630012512,-0.2944868206977844,-1.8962076902389526
1870,8.894631607635409,1.4460978507995605,-0.19871874153614044,-2.3726539611816406
1890,7.277239697910851,2.5450363159179688,0.6392518281936646,-0.22744916379451752
1910,4.4055794280021265,6.265625953674316,1.9033904075622559,2.631227731704712
1930,4.804760543143969,9.897629737854004,3.3423056602478027,3.9480385780334473
1949,5.364857885748451,,,
1950,,11.051634788513184,4.517858505249023,3.315969467163086
1969,4.121529940260281,,,
1970,,11.772290229797363,4.019864559173584,1.0414776802062988
1990,3.7919787323914647,12.871228218078613,2.537853717803955,-0.768538773059845
2009,5.0800559730149475,,,
2010,,14.839262008666992,1.048660397529602,0.4572925269603729
2030,9.126961275207682,17.769765853881836,1.2713210582733154,4.707000732421875
2050,5.229662786812313,11.817779541015625,2.006340980529785,4.987122058868408
2069,3.43790946602467,,,
2070,,7.989450931549072,3.995922565460205,0.16759411990642548
2089,3.4777226601790785,,,
2090,,9.160215377807617,4.532223701477051,1.501164436340332
2109,10.22465321295521,,1.0582371950149536,
2110,,18.085800170898438,,-5.5545477867126465
2129,11.858611352431103,21.21741485595703,4.228160381317139,-0.42377370595932007
2149,8.328758458993857,8.973467826843262,4.216189384460449,-7.560888767242432
2169,5.924690322187174,,,
2170,,8.549694061279297,3.287238836288452,-4.8722004890441895
2189,2.9535580272176136,8.892065048217773,0.35434186458587646,-1.6400281190872192
2209,5.033353756658959,,,
2210,,7.90086555480957,-2.808398485183716,1.5514427423477173
2229,6.772394119736174,7.589619159698486,-4.434061527252197,-1.235408067703247
2249,3.9111712164547114,,,
2250,,11.616666793823242,-1.8100165128707886,0.3926490843296051
2269,3.2234519022528776,12.935872077941895,1.0893617868423462,-0.40222588181495667
2289,2.1028505370120727,11.137825965881348,2.38462495803833,-0.1364694982767105
2308,3.94888681588315,,,
2309,,7.173028469085693,3.5218706130981445,0.304063618183136
2328,7.834587429652636,,,
2329,,,3.023876667022705,
2330,,2.6001031398773193,,-1.2234370708465576
2348,7.486675124034821,,,
2349,,3.136404275894165,1.8148049116134644,-2.4875755310058594
2368,7.636738481032695,,,
2370,,2.4157495498657227,0.4692635238170624,-1.3479355573654175
2388,6.073369615085625,,,
2389,,3.950432777404785,-0.38307225704193115,-1.091755986213684
2409,2.6873113876515426,7.19936466217041,-0.7709329724311829,0.38307225704193115
2428,3.4779065223753998,,-2.425326347351074,
2429,,9.050082206726074,,2.4396915435791016
2448,5.172555008637686,,-3.246537446975708,
2449,,9.464279174804688,,3.713406801223755
2468,4.78961825607641,,-2.233790159225464,
2469,,10.857705116271973,,3.5673606395721436
2487,3.474838549479139,,,
2488,,12.006921768188477,-0.5099649429321289,2.126051187515259
2508,1.9580111001764793,,1.3455413579940796,
2509,,11.149797439575195,,-0.8092401623725891
2528,4.392380550108637,11.293449401855469,-3.6798880100250244,-1.7525556087493896
2547,9.037817444772774,,,
2548,,9.593565940856934,-7.6782050132751465,5.063736438751221
2567,11.08244844121318,,,
2568,,,-7.50582218170166,
2569,,13.75708293914795,,7.553706169128418
2587,8.042354995705743,,,
2588,,15.837644577026367,-5.978321552276611,0.5554547905921936
2607,3.0262888787162083,,-2.3032219409942627,
2608,,10.522516250610352,,-2.346317768096924
2627,5.794203314798563,,-3.155557870864868,
2628,,14.30774974822998,,-2.7916390895843506
2647,8.324657756197098,,-0.5650315880775452,
2648,,17.975666046142578,,0.8571242094039917
2667,6.5042505304899585,13.9462251663208,-0.6847416758537292,-4.618414878845215
2687,8.93557227626171,6.868964672088623,0.4884171485900879,
2688,,,,-7.580042362213135
2707,5.509463751257106,,1.2234370708465576,
2708,,8.96149730682373,,-3.825934410095215
2727,6.911149578389477,15.377957344055176,2.1045033931732178,1.3670891523361206
2746,7.7416932903881825,,1.3503297567367554,
2747,,15.782577514648438,,4.175487995147705
2766,3.4349140497418227,,-0.6344634294509888,
2767,,12.780248641967773,,1.699883222579956
2786,0.6449280875430681,10.285490036010742,-1.3024457693099976,0.5147533416748047
2806,3.069955897309566,7.307103633880615,-1.821987509727478,-0.8667010068893433
2825,4.709708134057546,,,
2826,,5.195417881011963,-1.45806884765625,0.5147533416748047
2845,6.879572509525454,,,
2846,,2.9496564865112305,-0.7924807667732239,0.16759411990642548
2865,8.74036771022598,,,
2866,,1.2713210582733154,-0.6320692300796509,-0.9576807022094727
2885,9.280486309857956,,,
2886,,1.2521674633026123,-1.0199298858642578,-2.33913516998291
2905,8.899787780288904,,,
2906,,1.1180921792984009,-0.42856210470199585,-0.8738836050033569
2926,5.825391358420459,3.97916316986084,0.8427590131759644,1.946485996246338
2945,5.105735485811444,,,
2946,,7.680599212646484,2.3965959548950195,4.903325080871582
2965,4.813302109494647,,,
2966,,9.344569206237793,3.2345664501190186,4.261679172515869
2986,3.9073582412280765,,,
2987,,11.240777015686035,2.4444799423217773,3.2609026432037354
3005,2.617533646652402,,,
3006,,12.2990140914917,0.790086567401886,-0.2849099934101105
3025,3.8972498856427693,11.286267280578613,0.12210428714752197,-3.177105665206909
3045,8.403534517988222,,3.641580820083618,
3046,,17.36993408203125,,1.7932571172714233
3065,12.476127717259983,,1.4221558570861816,
3066,,19.543869018554688,,8.192957878112793
3085,4.6515409479997025,12.437877655029297,2.6192567348480225,3.5434184074401855
3104,5.284807259934671,,,
3105,,7.718906402587891,5.480327606201172,1.900996208190918
3144,3.322104583012647,12.902353286743164,0.24181437492370605,
3145,,,,0.8475474119186401
3183,9.692249339839798,12.971784591674805,5.999869346618652,-7.824251174926758
3223,4.563309898084081,8.700529098510742,1.3431471586227417,-3.6942532062530518
3263,6.1759928040339,,,
3264,,5.767632007598877,-3.1890766620635986,0.23702596127986908
3303,4.220415478904322,,,
3304,,12.389993667602539,-1.9297266006469727,-0.3926490843296051
3343,0.8950371456962308,,,
3344,,9.876082420349121,1.4652514457702637,0.11971008777618408
3383,8.012543381500638,,,
3384,,2.8443117141723633,3.5721490383148193,-1.5969325304031372
3422,7.149685309894246,,,
3423,,3.045424461364746,0.8690952062606812,-1.5059528350830078
3462,2.431750436777503,8.801085472106934,-2.094926595687866,1.3982137441635132
3502,5.253363122484461,10.017339706420898,-3.7612907886505127,
3503,,,,3.490746021270752
3542,2.321240993928052,10.979808807373047,-1.2737152576446533,1.335964560508728
3581,7.133482852450209,,,
3582,,12.528857231140137,-6.3518171310424805,2.542642116546631
3621,9.043088130286518,,,
3622,,15.43062973022461,-5.626373767852783,5.16429328918457
3661,1.68266153747595,10.33098030090332,-2.4205379486083984,-0.33279404044151306
3701,7.496712790766119,17.12333106994629,-0.021547814831137657,-0.14844051003456116
3850,8.642429597946908,,,
3851,,4.93923807144165,0.8762778043746948,-5.894524574279785
3860,2.6922498026063235,,,
3861,,7.259219646453857,-2.1811177730560303,0.023942016065120697
3899,6.8791397115763475,,,
3900,,2.9448680877685547,-0.7733271718025208,-0.17238251864910126
3939,9.04728189189149,1.0438719987869263,-0.768538773059845,
3940,,,,-1.1516109704971313
3979,5.2011720583575825,5.056553840637207,1.479616641998291,2.7724854946136475
4019,4.9918799268269085,9.99339771270752,3.600879430770874,4.170699596405029
4058,3.9536001048104654,,,
4059,,13.457807540893555,0.1388636976480484,-0.45010992884635925
4098,11.193592650193102,,,
4099,,19.823989868164062,2.0685901641845703,5.341464042663574
4138,8.336025820320543,8.655038833618164,7.862558364868164,-2.5306711196899414
4178,11.390507115302198,20.95644760131836,0.9241618514060974,-1.173158884048462
4221,10.008538225052835,10.156203269958496,5.65031623840332,-8.109161376953125
4238,7.298418098347152,,5.195417881011963,
4239,,9.81143856048584,,-5.262455463409424
4258,2.9013811571419836,7.989450931549072,0.933738648891449,-1.5514427423477173
4277,5.150375441412014,,,
4278,,6.864176273345947,-2.8443117141723633,-0.14604631066322327
4297,6.301089710269585,,,
4298,,7.496245384216309,-4.55616569519043,-1.280897855758667
4317,3.8507869163962165,,-2.43011474609375,
4318,,11.925518989562988,,-0.586579442024231
4338,3.330680904481182,13.108254432678223,-0.026336219161748886,-0.19153612852096558
4358,1.8124208104164887,,1.3479355573654175,
4359,,10.989385604858398,,-0.019153613597154617
4378,3.9774062305189295,6.8593878746032715,2.451662540435791,0.2082955539226532
4398,7.106208783703719,3.758896589279175,3.287238836288452,-1.316810965538025
4417,7.920494546188462,,,
4418,,2.583343744277954,2.408566951751709,-1.9967641830444336
4437,8.202586942919432,,,
4438,,1.9608511924743652,0.6536170840263367,-2.075772762298584
4457,6.14616194886371,3.907337188720703,-0.6991068720817566,-1.656787633895874
4477,2.6586984457407956,7.3238630294799805,-1.4748282432556152,0.33518823981285095
4497,3.6977033240156683,,,
4498,,9.038111686706543,-2.63362193107605,2.5522189140319824
4517,5.55939302575554,9.105149269104004,-3.7924153804779053,3.8067808151245117
4536,5.414861270610361,,,
4537,,10.680533409118652,-3.3925838470458984,3.7421371936798096
4556,3.908853624493356,12.033257484436035,-1.6280571222305298,2.2816741466522217
4576,1.6347560722773837,11.23598861694336,0.1173158809542656,-0.1412578970193863
4596,4.1181414836276335,12.22000503540039,-3.7181951999664307,-1.2330138683319092
4616,7.64667270082581,9.476250648498535,-6.698976516723633,4.592078685760498
4635,9.136166781371236,,,
4636,,13.232752799987793,-6.0621185302734375,6.572083473205566
4655,7.73403788130514,,,
4656,,16.04115104675293,-5.190629482269287,-2.0829553604125977
4675,3.940392536805973,12.629413604736328,-2.4588451385498047,-2.454056739807129
4695,7.944228076730138,17.4345760345459,-2.4372973442077637,-1.6687586307525635
4715,8.148934192825704,17.55668067932129,0.11971008777618408,-0.16519992053508759
4735,7.170007799216142,9.100360870361328,0.23702596127986908,-6.6630635261535645
4755,8.348347172506383,,,
4756,,5.351040840148926,0.24899697303771973,-6.291962146759033
4775,5.049731883872551,,2.1380221843719482,
4776,,11.370063781738281,,-1.6927006244659424
4795,9.000822241628295,,,
4796,,16.77377700805664,2.741360902786255,3.138798475265503
4815,6.268415253088794,,,
4816,,15.0355863571167,0.09576806426048279,2.6815059185028076
4835,1.8372693364694341,11.343728065490723,-1.4628572463989258,0.7422025203704834
4855,0.7474109147485267,9.184157371520996,-1.5155296325683594,0.18914192914962769
4875,3.6828172336526905,6.4164605140686035,-2.1739351749420166,-0.4429273009300232
4896,5.686700114919151,,-2.3535003662109375,
4897,,4.4292731285095215,,-0.3687070608139038
4915,8.26281113493238,,-1.7549498081207275,
4916,,1.7573440074920654,,-0.9409212470054626
4935,9.399700939209824,0.5003881454467773,-0.7565677165985107,-0.7637503147125244
4955,9.060989569711571,0.9002198576927185,-0.33039984107017517,-1.0797849893569946
4974,8.2740543989201,,0.09576806426048279,
4975,,1.6519991159439087,,-0.8451532125473022
4994,5.1570613338365625,5.145139217376709,1.8291701078414917,
4995,,,,1.8722656965255737
5015,5.029913493753016,8.609549522399902,3.383007049560547,3.6559460163116455
5034,5.435868994228255,10.086771965026855,3.818751811981201,3.7684733867645264
5054,4.718682497059602,12.231976509094238,2.8850131034851074,2.7030537128448486
5073,4.051887383254519,,,
5074,,13.795390129089355,0.7565677165985107,0.0071826050989329815
5094,4.690934410793046,,,
5095,,13.752294540405273,1.1324573755264282,-2.1499931812286377
5113,12.085489926869368,,,
5114,,20.592529296875,4.398148536682129,3.579331636428833
5133,6.155831724567478,,4.584896087646484,
5134,,14.025233268737793,,1.3646949529647827
5153,9.485959167405454,13.036428451538086,9.320627212524414,-1.7549498081207275
5174,6.690828154756657,13.903129577636719,5.6670756340026855,-2.2625205516815186
5193,11.076866003036182,20.645200729370117,-0.6512228846549988,0.5817909836769104
5213,5.535456722613744,10.053253173828125,3.6511576175689697,-5.284003257751465
5233,8.29027091951435,8.243236541748047,7.036558628082275,-6.203376770019531
5253,6.871798515501345,9.011775016784668,6.1985883712768555,-4.790797710418701
5273,4.098642701434043,7.096413612365723,-0.9313444495201111,-1.137245774269104
5293,7.089663500635703,7.036558628082275,-4.49870491027832,-1.4101848602294922
5313,8.424179752616544,7.496245384216309,-5.60722017288208,-3.378218650817871
5333,4.564184217648521,12.236764907836914,-2.2433669567108154,-1.2018892765045166
5352,2.680353020860642,,,
5353,,12.258312225341797,0.40222588181495667,0.5339069962501526
5372,1.1622808249807182,,,
5373,,10.144232749938965,0.9911994934082031,0.9002198576927185
5392,3.113955856617966,7.19936466217041,1.7118542194366455,
5393,,,,1.0630255937576294
5412,5.534372256691337,4.608838081359863,1.968033790588379,
5413,,,,-0.9744400978088379
5432,6.61220019405417,3.4356794357299805,0.9026140570640564,-1.6089035272598267
5452,6.8607735218320025,2.9472622871398926,-0.16998831927776337,0.09816227108240128
5471,5.860263604494269,,,
5472,,4.055777549743652,-1.1492167711257935,-0.5578489899635315
5492,2.751753248180747,7.407660007476807,-1.659181833267212,0.24899697303771973
5512,2.984908610467295,9.030928611755371,-2.5546131134033203,1.7166426181793213
5531,4.583450084702034,,,
5532,,8.145073890686035,-3.251325845718384,2.832340717315674
5551,4.0861825668918295,,,
5552,,9.488221168518066,-2.655169725418091,2.9472622871398926
5571,2.853039001305231,,,
5572,,11.08754825592041,-0.49320554733276367,2.1547815799713135
5591,2.124490452429617,,,
5592,,11.281478881835938,1.1827356815338135,0.07422025501728058
5611,3.249553649769379,12.533645629882812,-2.0254945755004883,
5612,,,,-0.17238251864910126
5631,7.622638274102511,11.21444034576416,-5.2696380615234375,
5632,,,,5.765237808227539
5651,9.808181103800102,,,
5652,,14.233529090881348,-6.145915985107422,6.876147270202637
5670,7.12254799930765,,,
5671,,13.735535621643066,-6.358999729156494,
5672,,,,-1.9321208000183105
5690,2.115548150203648,,,
5691,,11.082759857177734,-2.365471363067627,-0.6440402865409851
5710,6.738023942098092,,,
5711,,15.91665267944336,-2.2673089504241943,-2.233790159225464
5730,9.073288382541024,,,
5731,,18.7657527923584,-1.3024457693099976,-0.363918662071228
5750,4.913355256389291,,,
5751,,12.320562362670898,0.19871874153614044,-3.3686418533325195
5770,8.531857199946177,4.757278919219971,1.0271124839782715,
5771,,,,-5.686229228973389
5790,4.541301654298251,8.738836288452148,1.845929503440857,-1.867477297782898
5810,7.849042467165481,16.05312156677246,2.7461493015289307,2.0638017654418945
5830,7.925620734035625,,,
5831,,16.52238655090332,-0.08858546614646912,4.137180328369141
5850,4.417658328644552,13.984532356262207,-2.2194249629974365,0.7637503147125244
5869,2.0934906984008244,,,
5870,,10.99656867980957,-2.516305923461914,0.5530605912208557
5890,3.133032279736221,7.261613845825195,-2.33913516998291,-0.08619125932455063
5910,5.265631701184998,4.747702121734619,-1.7094600200653076,-0.028730420395731926
5930,7.688372058562766,2.233790159225464,-0.646434485912323,-0.5602431893348694
5949,9.246755907452718,,,
5950,,0.5650315880775452,0.031124621629714966,-0.009576806798577309
5969,9.03378397625754,0.8259995579719543,0.7445967197418213,-0.19153612852096558
5989,8.929755423380122,0.9648633003234863,1.2952631711959839,-0.21787235140800476
6009,7.43319911179867,2.4468741416931152,1.766920804977417,0.6200982332229614
6029,3.685185239320801,6.732495307922363,1.9943699836730957,1.9800047874450684
6049,3.4360127786436476,9.615114212036133,1.6687586307525635,3.4189200401306152
6069,3.264404068637926,11.417947769165039,1.0462661981582642,2.7246015071868896
6089,4.461684824113707,14.231135368347168,0.3663128614425659,0.3926490843296051
6109,7.8373708127217965,17.38190460205078,2.3032219409942627,0.15083470940589905
6128,12.927190091135186,,,
6129,,21.7010440826416,3.488351821899414,4.132391929626465
6148,5.093972604954253,,,
6149,,13.21599292755127,3.914519786834717,1.5873557329177856
6168,5.844866804003575,8.650250434875488,5.7125654220581055,3.0813376903533936
6188,6.624050432206715,5.633556365966797,5.841852188110352,
6189,,,,2.229001760482788
6208,5.0322761200075306,12.255918502807617,0.42616790533065796,-3.971980571746826
6228,12.41529466528993,21.641189575195312,4.2951979637146,1.9393033981323242
6248,9.459015629787823,12.971784591674805,3.754108190536499,-8.303091049194336
6268,7.764345489644852,8.379706382751465,3.4548330307006836,-6.782773494720459
6288,4.637041242997285,10.218452453613281,1.0414776802062988,-3.8091750144958496
6307,3.1707157215123383,,,
6308,,8.367734909057617,-1.0247182846069336,1.8148049116134644
6327,5.5783111797645475,6.5912370681762695,-2.7269957065582275,
6328,,,,-1.192312479019165
6347,3.6054682209845224,,,
6348,,10.053253173828125,-1.8579005002975464,0.7422025203704834
6367,3.802977379321607,13.4506254196167,0.6272808313369751,
6368,,,,-0.07422025501728058
6387,3.4203978533526955,12.926295280456543,1.7908629179000854,-1.113303780555725
6407,1.829658061115647,9.57201862335205,2.3295583724975586,-0.47165772318840027
6427,5.673598182733011,4.857835292816162,2.7461493015289307,-1.280897855758667
6447,7.699241293647234,2.7772738933563232,1.9393033981323242,-2.3343467712402344
6466,7.311159451191853,,,
6467,,2.7461493015289307,0.6272808313369751,-1.4748282432556152
6486,7.714028339028321,,,
6487,,2.212242364883423,-0.9145850539207458,-0.608127236366272
6506,5.340971285607295,,,
6507,,4.73573112487793,-1.6424223184585571,0.6129156351089478
6526,4.115997663699304,,,
6527,,7.7213006019592285,-2.5546131134033203,2.5091233253479004
6547,5.033717338279854,,-3.603273630142212,
6548,,8.573636054992676,,3.162740468978882
6566,5.022240194965563,,-3.313575267791748,
6567,,9.75637149810791,,3.4739866256713867
6586,3.411804430151953,11.470620155334473,-1.764526605606079,2.049436569213867
6606,1.8122482782714344,11.561599731445312,0.24660277366638184,0.026336219161748886
6626,2.9046721738643884,11.791443824768066,-2.032677173614502,-0.828393816947937
6646,7.454120433558092,10.295066833496094,-5.961562156677246,
6647,,,,4.750096321105957
6665,10.127783122026107,,,
6666,,13.42668342590332,-6.813898086547852,6.976703643798828
6685,8.363184551052365,,,
6686,,15.078681945800781,-7.060500621795654,-1.0079588890075684
6705,3.4499488826779476,,,
6706,,11.257535934448242,-2.4803929328918457,-2.5115175247192383
6725,6.867088343194109,,,
6726,,15.631742477416992,-2.300827741622925,-3.292027235031128
6745,8.307698863861019,,,
6746,,17.894264221191406,0.0933738648891449,-0.22505496442317963
6765,5.315891036295385,12.72757625579834,0.20350714027881622,
6766,,,,-3.7900211811065674
6785,8.111948652296809,,0.395043283700943,
6786,,6.629544734954834,,-6.6391215324401855
6805,4.62619889675096,9.967061996459961,1.8148049116134644,-2.31758713722229
6825,8.218774599683956,16.323667526245117,2.7916390895843506,2.4660277366638184
6845,8.42456781654156,16.800113677978516,0.47644615173339844,4.395754337310791
6864,3.4608991978164125,,-2.0853497982025146,
6865,,12.878411293029785,,1.3623007535934448
6884,2.189108774702168,9.586383819580078,-3.0190882682800293,
6885,,,,0.8355764150619507
6904,3.9975450850300795,,-3.2585084438323975,
6905,,6.813898086547852,,-0.009576806798577309
6924,5.9363148359724915,,-2.5665841102600098,
6925,,4.28322696685791,,-0.002394201699644327
6944,7.310098628723823,2.580949544906616,-1.173158884048462,
6945,,,,-0.15801730751991272
6964,8.510951000109772,,-0.28730419278144836,
6965,,1.3335703611373901,,-0.22026655077934265
6984,8.412448795610558,1.5322890281677246,0.3926490843296051,-0.6488286852836609
7004,8.020745082881659,1.9752163887023926,0.49320554733276367,-0.8188169598579407
7024,6.435664239256074,3.3925838470458984,0.5889736413955688,0.08140286058187485
7044,4.202554770435567,6.145915985107422,1.8507179021835327,2.1332337856292725
7063,4.4124811361196015,,,
7064,,9.045293807983398,3.3901896476745605,3.428496837615967
7084,4.667797337660841,,3.464409828186035,
7085,,11.389217376708984,,3.1962592601776123
7103,3.5221015105904203,12.509703636169434,2.585737943649292,-0.2849099934101105
7123,4.64291910821834,13.634978294372559,1.7334020137786865,-2.0159177780151367
7142,9.98328605050516,,,
7143,,19.448101043701172,2.5258827209472656,1.53707754611969
7162,6.180611214643117,,,
7163,,13.816938400268555,2.626439332962036,4.489128112792969
7182,4.54455801011762,,,
7183,,9.75637149810791,5.166687488555908,0.5841852426528931
7202,8.572832764546776,,,
7203,,8.913613319396973,9.026140213012695,-2.5234885215759277
7222,8.946758463237494,18.574216842651367,2.561795711517334,0.1628057211637497
7242,16.219834719567217,25.359384536743164,-0.9720458984375,3.536235809326172
7262,8.988613130824188,7.869740962982178,1.920149803161621,-8.83939266204834
7282,8.856230754737162,10.153809547424316,5.137956619262695,-7.673416614532471
7302,6.360279515679961,,2.4420857429504395,
7303,,7.548917770385742,,-5.094861030578613
7322,5.454883892946069,4.982333660125732,0.8068459630012512,-1.8962076902389526
7342,6.567894162829579,4.019864559173584,-1.0749965906143188,-1.3934253454208374
7362,3.5501876351642383,9.435548782348633,-1.8267759084701538,-0.0454898327589035
7382,4.97338650863351,14.36521053314209,-0.272938996553421,-0.4596867263317108
7402,4.233465455964617,13.876792907714844,0.7709329724311829,0.3734954595565796
7422,1.4393556476439946,,,
7423,,9.864110946655273,1.2641384601593018,1.1085153818130493
7442,3.4449405945194567,6.531382083892822,1.6711528301239014,0.26336219906806946
7461,5.674859052747891,,,
7462,,4.323928356170654,1.4221558570861816,-1.094150185585022
7481,7.5386245521274935,,,
7482,,2.408566951751709,0.4405331015586853,-1.3263877630233765
7501,8.23208383610541,,,
7502,,1.742978811264038,-0.6943184733390808,-1.2521674633026123
7521,5.863078907442944,4.220977783203125,-1.2761094570159912,-1.1037269830703735
7541,2.358442109455898,8.209717750549316,-1.5634137392044067,0.6655880808830261
7561,3.725610895435734,9.289502143859863,-2.0638017654418945,2.6144683361053467
7581,5.27844850171005,8.889671325683594,-2.497152328491211,3.823540210723877
7601,6.141131275845516,10.120290756225586,-2.829946517944336,4.520252704620361
7621,5.696160398560842,10.809821128845215,-3.0526070594787598,3.737348794937134
7641,4.261791253106913,10.223240852355957,-2.5115175247192383,2.6192567348480225
7680,6.488829183666703,8.271966934204102,-5.78678560256958,1.9967641830444336
7719,7.278022804050513,,,
7720,,14.870387077331543,-4.67827033996582,2.652775526046753
7759,9.59595337457369,15.028404235839844,-4.311957359313965,
7760,,,,-7.374141216278076
7799,8.745927571417035,,,
7800,,17.951725006103516,0.8786720037460327,-1.7860745191574097
10604,3.3222356275743765,9.81143856048584,1.7142484188079834,0.24420857429504395
10642,7.771355278206461,,,
10643,,3.8594532012939453,3.227383852005005,-0.5674257874488831
10682,7.120963844039319,2.8634653091430664,-0.16998831927776337,-0.9983820915222168
10722,1.8055870819599844,8.034940719604492,-2.9017724990844727,1.0223240852355957
10762,4.49000074152951,8.724471092224121,-3.383007049560547,3.77565598487854
10801,4.177249261441303,11.037269592285156,-0.6272808313369751,2.8586769104003906
10841,2.371285696288845,11.815385818481445,-2.765302896499634,-0.36152446269989014
10881,9.568469210241718,12.60307788848877,-6.801927089691162,7.347805023193359
10921,3.4523614237691844,12.445060729980469,-2.52109432220459,-2.0877439975738525
10960,11.672237119968289,,,
10961,,20.46803092956543,0.7805097699165344,0.4572925269603729
11000,10.962621123146072,,,
11001,,4.525041103363037,0.47884035110473633,-8.944737434387207
11040,7.489323200771564,14.911087989807129,2.126051187515259,0.9313444495201111
11080,3.64895083881944,12.746729850769043,-1.3287819623947144,0.9169792532920837
11120,1.1753915033055096,,,
11121,,8.966285705566406,-2.779668092727661,-0.26815059781074524
11159,6.85776426133638,,,
11160,,2.8562827110290527,-1.0271124839782715,0.2298433631658554
11199,10.12847388683839,,,
11200,,0.4381389021873474,-0.993593692779541,-3.181894063949585
11239,6.411092872233739,3.7924153804779053,1.479616641998291,1.5873557329177856
11279,6.21713803356248,,4.522646903991699,
11280,,10.11789608001709,,3.7445313930511475
11319,4.415410900932354,12.533645629882812,3.0382418632507324,-0.043095629662275314
19622,7.996701752730256,17.42978858947754,-2.851494312286377,0.6416460275650024
19662,8.702101477769293,8.11634349822998,-0.8786720037460327,-7.8960771560668945
19701,4.404698741366686,10.498574256896973,2.607285737991333,
19702,,,,-1.5682021379470825
19741,4.8850075144402485,14.068328857421875,0.43095630407333374,2.6839001178741455
19781,3.1248889140412106,9.81143856048584,-3.1914708614349365,-0.05506663769483566
19821,4.130863299717403,6.026205539703369,-1.37906014919281,0.3998316824436188
19860,7.226698953525917,,,
19861,,2.604891538619995,0.17477671802043915,-0.16519992053508759
19900,8.198370552989239,2.252943754196167,-0.43095630407333374,-2.123656988143921
19940,4.308005824574789,6.675034523010254,2.3343467712402344,3.3039982318878174
19980,4.105456670712487,,3.5721490383148193,
19981,,10.007762908935547,,3.5194764137268066
20020,1.5774756880396608,10.687716484069824,0.47405192255973816,-0.7661445140838623
20060,10.510297539561723,19.594146728515625,1.3192051649093628,4.060565948486328
20099,3.6518405506468423,,2.2888567447662354,
20100,,7.864952564239502,,3.3854012489318848
20139,4.776061989488977,13.369222640991211,2.6408045291900635,-2.5282769203186035
20179,8.346541148614065,12.248735427856445,4.37420654296875,-7.398083209991455
20219,3.080033228806429,10.714052200317383,1.7549498081207275,-2.367865562438965
20258,7.168109245898308,5.858611583709717,-3.974374771118164,
20259,,,,-0.7158663272857666
20298,3.528854232583746,12.437877655029297,-0.33279404044151306,-1.1899182796478271
20338,1.7810669520504157,10.290278434753418,2.693476915359497,0.2106897532939911
20378,6.222401835861582,4.086902141571045,2.4468741416931152,-1.659181833267212
20418,7.150933168777777,2.8347349166870117,0.0933738648891449,-1.5849615335464478
20457,3.7006255780866906,,,
20458,,7.795520782470703,-2.22660756111145,1.7166426181793213
20497,5.435653899301195,,,
20498,,8.995016098022461,-3.7181951999664307,3.0382418632507324
20537,3.3750772820560826,,-0.8164227604866028,
20538,,12.480973243713379,,1.0462661981582642
20577,4.172656268284263,12.097901344299316,-3.4165258407592773,0.22505496442317963
20624,10.246228896721169,12.267889976501465,-8.238448143005371,5.8442463874816895
20656,4.178087730498276,11.906365394592285,-2.7700912952423096,
20657,,,,-3.1890766620635986
20696,12.198991102182704,21.57175636291504,0.2753331959247589,1.8579005002975464
20736,9.024343839763711,4.113238334655762,-0.49320554733276367,-6.689399719238281
20776,7.7561943156712605,,,
20777,,15.631742477416992,3.19865345954895,1.7597382068634033
20816,1.5291205410492783,11.125855445861816,-0.4836287498474121,0.19632454216480255
20856,2.0666094213166306,8.671798706054688,-2.140416383743286,0.090979665517807
20895,7.06555298840667,,,
20896,,2.9065608978271484,-1.3000515699386597,-0.7158663272857666
20935,8.229410546145557,1.8507179021835327,0.15562310814857483,-1.7118542194366455
20975,4.118764615069147,6.098031520843506,2.0925323963165283,1.1659762859344482
21015,5.318071921457249,9.162610054016113,3.4811692237854004,4.1874589920043945
21054,2.5391083229038207,,,
21055,,10.680533409118652,2.1787235736846924,1.7190368175506592
21095,3.6352362966014886,13.345280647277832,0.9624691009521484,-0.5961562395095825
21134,6.771486346715173,13.30218505859375,3.490746021270752,5.238513469696045
21174,5.31336285932722,7.496245384216309,6.045359134674072,1.5682021379470825
21214,13.83638083352408,22.835895538330078,5.801150798797607,0.6727706789970398
21253,6.569393352213984,,2.2673089504241943,
21254,,9.792284965515137,,-5.779603004455566
21293,5.334891489028341,7.007828235626221,-2.655169725418091,0.040701430290937424
27599,4.34027157931415,,,
27600,,5.846640586853027,2.7126305103302,2.959233283996582
27633,3.1737319696972706,11.559206008911133,3.1292216777801514,2.518700122833252
27672,3.100509349447794,12.753912925720215,1.7166426181793213,0.6368576288223267
27712,6.665052727206688,16.309301376342773,1.7501614093780518,1.048660397529602
27752,6.5587388659310575,10.426748275756836,8.099584579467773,-1.8339585065841675
27791,16.415237493641577,,,
27792,,24.159889221191406,2.9328970909118652,-7.158663272857666
27831,6.1983670453047806,,,
27832,,7.690176010131836,4.417302131652832,-5.073313236236572
27871,5.26809480514318,6.387730121612549,-1.6687586307525635,1.7621324062347412
27911,8.900704139543539,7.972691535949707,-5.102043628692627,-4.094084739685059
27951,4.386085634410574,13.632584571838379,2.2218191623687744,1.9632453918457031
27991,3.004068318175556,7.314286231994629,2.978386878967285,0.5530605912208557
28031,7.765528964210625,2.434903144836426,1.1899182796478271,-2.1763293743133545
28071,5.392388539088605,4.78122091293335,-1.50355863571167,0.035913024097681046
28110,4.123123204379914,9.150638580322266,-2.4588451385498047,
28111,,,,3.1004912853240967
28150,4.323805433471038,10.642226219177246,-2.123656988143921,3.2632968425750732
28190,2.694498928956813,,,
28191,,11.779472351074219,2.027888774871826,0.3016694188117981
28229,8.867755780936461,,-8.018181800842285,
28230,,10.204087257385254,,4.175487995147705
28269,5.7288845293337385,,-4.663905143737793,
28270,,13.160926818847656,,2.738966703414917
28309,7.057532259698123,13.711592674255371,-4.8051629066467285,-3.950432777404785
28350,9.428740016866731,18.59815788269043,1.4963760375976562,-0.9816226959228516
28389,5.889735470904982,8.453926086425781,1.039083480834961,-3.955221176147461
28428,6.832886316828429,15.31570816040039,1.173158884048462,
28429,,,,3.6607344150543213
28468,1.6517127886253102,8.822632789611816,-1.9393033981323242,-0.11971008777618408
28508,4.797349937362167,,,
28509,,5.585672378540039,-2.274491548538208,-0.5147533416748047
28548,7.548640137536389,2.3558945655822754,-0.1604115068912506,-0.4429273009300232
28588,8.070629191208836,1.821987509727478,0.7110779285430908,-0.33039984107017517
28628,4.285647396292266,6.5050458908081055,2.612074136734009,2.497152328491211
28667,3.8738988726980357,,,
28668,,10.625467300415039,2.8634653091430664,3.177105665206909
28707,3.5302895108987475,,,
28708,,12.938265800476074,1.6903064250946045,-1.0797849893569946
28747,10.89949311643952,19.970035552978516,2.3918075561523438,3.7708675861358643
28787,7.334320377622682,11.894393920898438,8.202534675598145,0.47165772318840027
28827,8.519931089453891,,,
28828,,16.996437072753906,2.6024973392486572,-4.141968727111816
28867,8.400869015746322,12.023680686950684,6.7277069091796875,-5.880159378051758
28907,5.306978655099218,,,
28908,,9.411606788635254,-3.3063924312591553,0.033518824726343155
28948,7.987140811013722,8.899248123168945,-5.932831764221191,-1.5610195398330688
28987,1.5814109056952836,,,
28988,,11.12346076965332,0.2082955539226532,0.1628057211637497
29607,5.607578000373551,5.609614372253418,4.288015365600586,1.139639973640442
29632,3.0752990453189506,12.868834495544434,-0.20111294090747833,-0.009576806798577309
29671,2.105431494445144,,,
29672,,11.5065336227417,-1.0223240852355957,0.023942016065120697
29711,3.760328437988875,,,
29712,,6.36378812789917,0.6584054827690125,-0.3926490843296051
29751,5.554846481001094,,,
29752,,4.304774761199951,-0.2825157940387726,-1.4413094520568848
29791,2.8732827074882277,,,
29792,,6.806715488433838,-2.4851813316345215,-0.08858546614646912
29831,1.0518800457240103,8.56884765625,-2.935291290283203,-1.8363527059555054
29871,1.7628250201152096,9.964667320251465,-1.501164436340332,-0.5027823448181152
29911,1.7271378883178556,10.177751541137695,-3.1675288677215576,-0.0454898327589035
29951,2.6993515048248797,8.619126319885254,-4.680664539337158,0.8882488012313843
29992,2.4282958531503622,11.437101364135742,-2.1380221843719482,0.05506663769483566
30031,7.033869954590143,,-4.9799394607543945,
30032,,15.923835754394531,,-0.13407529890537262
30071,11.311188848395313,,,
30072,,19.416975021362305,-7.156269073486328,-4.113238334655762
30111,2.5399549588392563,,,
30112,,7.117961883544922,-4.153939723968506,-1.072602391242981
30150,3.9446861449738475,,,
30151,,,-4.541800498962402,
30152,,6.598419666290283,,-3.6966474056243896
30190,3.2215002957595105,,,
30191,,9.232041358947754,-3.9647979736328125,1.290474772453308
30231,3.8340300189511116,12.935872077941895,-2.5115175247192383,-2.655169725418091
30268,5.083013347289254,,,
30269,,10.316615104675293,2.454056739807129,-3.203441858291626
30308,5.680005511966233,,,
30309,,6.742072105407715,3.1531636714935303,-2.829946517944336
30348,3.5866650609954682,7.400477409362793,2.540247917175293,-0.8786720037460327
30388,3.1698854718142333,9.514557838439941,-2.0254945755004883,-0.11252748221158981
30428,3.1649461054017425,7.082048416137695,-0.15562310814857483,-0.5602431893348694
30467,6.7732907887622,,,
30468,,2.760514497756958,1.98958158493042,-0.3974374830722809
30508,6.01614338016094,3.5170822143554688,3.339911460876465,-0.1173158809542656
30547,0.7708425048763633,9.32302188873291,3.2632968425750732,-0.6105214357376099
30587,3.7026621855270347,9.102754592895508,4.335899353027344,2.5522189140319824
30627,4.617145363862303,12.294225692749023,3.464409828186035,3.112462282180786
30666,11.0972162553572,,,
30667,,20.190303802490234,5.013458251953125,0.5793967843055725
30706,2.7345017757999406,,,
30707,,9.198522567749023,6.303933143615723,0.8690952062606812
30746,4.645354971898424,,,
30747,,4.611232280731201,3.378218650817871,-0.9552865028381348
37612,4.100327892683053,,,
37613,,9.715670585632324,-0.6823474764823914,1.3862427473068237
37652,9.372185449905581,10.369287490844727,-5.9304375648498535,3.5745432376861572
37691,10.331955561513883,,,
37692,,16.074670791625977,-5.307945251464844,2.7964274883270264
37732,4.7720243918985785,,0.2585737705230713,
37733,,13.807361602783203,,-1.0773907899856567
37771,7.698418531632559,16.486473083496094,-2.2625205516815186,-0.7613561153411865
37811,4.78968177263942,6.856993675231934,2.542642116546631,-2.535459518432617
37851,8.491685727902608,16.543933868408203,3.2848446369171143,5.348646640777588
37890,4.107133493353554,,,
37891,,11.331756591796875,-2.4229321479797363,0.8212111592292786
37930,6.29610133565277,,,
37931,,4.716577529907227,-2.31758713722229,1.0869675874710083
37970,8.878489063697675,1.3215993642807007,-0.7422025203704834,-0.8140285611152649
38010,6.699553278364063,2.935291290283203,0.8236053586006165,0.7206547260284424
38050,2.826636750029949,7.129932880401611,1.7812861204147339,2.58813214302063
38089,4.59202055262575,,,
38090,,9.308655738830566,2.7030537128448486,5.284003257751465
38130,2.461002409548241,10.845733642578125,0.4908113479614258,2.3942017555236816
38169,8.107511037889013,,4.383783340454102,
38170,,17.061080932617188,,2.868253707885742
38209,5.062521852045816,,3.44765043258667,
38210,,9.727641105651855,,5.78678560256958
38249,4.3093635099726715,6.610390663146973,5.22175407409668,-0.4189853072166443
38289,10.630035284348043,18.940528869628906,7.1251444816589355,1.9369091987609863
38328,6.57949894490202,,,
38329,,12.85207462310791,2.513911724090576,-4.752490520477295
38368,5.603205696541828,,-2.011129379272461,
38369,,6.303933143615723,,0.9816226959228516
38408,4.8866320998013135,10.83855152130127,-2.126051187515259,-0.33758243918418884
38448,2.8041758801184677,11.425130844116211,2.806004285812378,-0.2944868206977844
38487,7.248013980742522,,,
38488,,3.687070608139038,2.47560453414917,-2.164358377456665
38527,7.8945201362180555,,,
38528,,2.604891538619995,-0.9481038451194763,-1.280897855758667
38727,4.874973199232721,7.510610580444336,-3.4165258407592773,3.773261785507202
38766,7.624782121390856,14.879963874816895,-3.2632968425750732,
38767,,,,-3.6367924213409424
38806,4.521622525899706,13.826515197753906,0.8236053586006165,0.0933738648891449
38845,3.9171641960409467,,,
38846,,9.44752025604248,1.4867992401123047,-1.4724340438842773
38885,9.306336276831013,,,
38886,,17.755399703979492,0.22744916379451752,5.7987565994262695
38925,3.2511302743212105,9.509769439697266,-3.2824504375457764,0.5123591423034668
38965,6.998655190034307,,,
38966,,3.1699230670928955,-2.0470423698425293,0.47165772318840027
39006,9.122199477945529,0.7398083209991455,0.1604115068912506,-0.18914192914962769
39045,7.014284001500862,,,
39046,,2.691082715988159,1.1827356815338135,0.44532153010368347
39085,2.7715705713009835,,,
39086,,7.754819393157959,1.7980455160140991,3.557783842086792
39125,3.52681811905886,10.663774490356445,2.942473888397217,4.125209331512451
39165,3.6453581727425037,,,
39166,,13.043610572814941,2.1140801906585693,0.272938996553421
39205,6.769377973596545,14.113819122314453,2.7078421115875244,6.258443355560303
39245,5.019848147827392,6.552929878234863,5.284003257751465,3.6942532062530518
39284,13.123778077420793,,,
39285,,18.308460235595703,6.150704383850098,
39286,,,,-7.374141216278076
39324,6.5866794371899395,,4.182670593261719,
39325,,9.6989107131958,,-5.492298603057861
39363,2.8678988787755113,,,
39364,,10.60152530670166,-0.3902548849582672,1.2880805730819702
39403,5.8585217477698075,,,
39404,,7.618350028991699,-3.3039982318878174,0.5841852426528931
39443,3.9103505089186186,,,
39444,,13.340492248535156,1.3431471586227417,-0.8643068075180054
39483,5.095914415955316,5.363011837005615,3.514688014984131,
39484,,,,-0.07661445438861847
39523,8.639994979433084,2.296039342880249,1.889025092124939,-3.066972494125366
39562,6.433296386665365,,,
39563,,3.8786067962646484,-1.8842366933822632,0.24660277366638184
39602,6.304446380050793,,,
39604,,9.962273597717285,-4.632780075073242,4.491522312164307
39643,5.413301488723171,,-3.246537446975708,
39644,,9.600749015808105,,4.55616569519043
39682,1.168029069140324,,-0.7445967197418213,
39683,,10.333374977111816,,0.608127236366272
39722,8.4091301844474,,-4.795586109161377,
39723,,10.460267066955566,,7.927201747894287
39762,6.731057042266839,13.955801963806152,-4.460397720336914,-2.5282769203186035
39801,7.778217260871814,17.00840950012207,-1.5945383310317993,-1.7812861204147339
39841,7.084055456115675,10.287884712219238,1.1827356815338135,-5.5545477867126465
40623,7.030550637962095,,0.6991068720817566,
40624,,2.8874073028564453,,0.8188169598579407
40663,5.808527747922762,8.516175270080566,3.3494882583618164,4.587290287017822
40702,4.701733557599289,,,
40703,,10.833763122558594,3.181894063949585,2.9735984802246094
40742,5.0285212539052235,,,
40743,,14.247894287109375,1.3335703611373901,1.192312479019165
40782,6.27758408794348,12.136208534240723,2.22660756111145,6.301538944244385
40822,2.1024249834791315,11.204863548278809,1.5466543436050415,1.482010841369629
40862,8.245548318798255,13.21359920501709,5.925649166107178,-4.098873138427734
40902,6.154505448603855,9.469067573547363,3.995922565460205,
40903,,,,-3.581725835800171
40942,6.164311586479473,6.998251438140869,-4.113238334655762,-1.0438719987869263
40982,5.0778211297304585,,,
40983,,14.815320014953613,0.35913026332855225,0.1149216815829277
41022,2.8880603857516634,,2.738966703414917,
41023,,9.775525093078613,,1.6184803247451782
41061,8.639679731155177,,,
41062,,2.190694570541382,2.4875755310058594,-2.078166961669922
41101,8.082439517388677,2.2601263523101807,0.4596867263317108,-1.7166426181793213
41140,2.033627453882668,,,
41141,,8.695740699768066,-1.5131354331970215,2.276885747909546
41181,4.820396187672537,,-3.5434184074401855,
41182,,8.927978515625,,4.000710964202881
41221,2.670011439352497,,-1.8267759084701538,
41222,,10.5344877243042,,2.341529369354248
41261,5.203150110499187,12.088324546813965,-5.114014625549316,1.7501614093780518
41300,9.319222910168747,,,
41301,,13.55118179321289,-5.868188381195068,7.572859764099121
41340,1.9314552272156789,,,
41341,,10.802638053894043,-0.2968810200691223,-0.2346317619085312
41380,5.278188506535406,,,
41381,,14.906299591064453,-1.414973258972168,-0.24899697303771973
41430,6.860956448533388,,,
41431,,9.351752281188965,1.259350061416626,-5.518634796142578
41459,5.34145837021613,,,
41460,,13.536816596984863,1.4915876388549805,0.40462008118629456
41499,6.30998587822883,15.444994926452637,-1.9704279899597168,3.2321722507476807
41539,3.5497728516883984,,,
41540,,7.592013359069824,-3.627215623855591,0.17956513166427612
41579,6.029679009796594,3.7038300037384033,-0.011971008032560349,0.9576807022094727
41618,8.276871815828978,2.1356279850006104,0.9911994934082031,-1.623268723487854
41658,7.956684387766879,,,
41661,,1.9369091987609863,1.094150185585022,-0.090979665517807
41698,5.285389739276085,,,
41699,,8.702922821044922,3.138798475265503,5.580883979797363
41738,3.4356551334918732,11.66694450378418,2.849100112915039,2.5665841102600098
41778,6.1119048595313465,,1.403002142906189,
41779,,15.763423919677734,,0.8212111592292786
41817,5.190141120417971,10.247182846069336,2.250549554824829,6.095637321472168
41857,4.75802616836003,,,
41858,,8.422801971435547,5.061342239379883,3.8522706031799316
41897,13.20260145966447,21.45444107055664,6.349422931671143,-2.1595699787139893
41937,6.447961103525526,,,
41938,,9.653421401977539,5.305551052093506,-4.089296340942383
41976,3.8381027046603373,,,
41977,,7.738059997558594,-1.5825673341751099,1.0893617868423462
42017,5.788027857525583,9.593565940856934,-3.9600095748901367,-0.30885201692581177
42056,2.906663106455358,,,
42057,,12.571952819824219,0.730231523513794,0.3926490843296051
42096,5.22391277482263,,,
42097,,5.339069843292236,3.3231520652770996,0.5674257874488831
42135,7.163952276448963,3.5458126068115234,1.6089035272598267,-2.0829553604125977
42175,4.652283483158138,5.494692802429199,-1.8171991109848022,0.5267243981361389
42215,4.684309623928806,8.729259490966797,-3.509899616241455,3.8546648025512695
42255,4.215721569270126,9.524134635925293,-2.3056161403656006,4.141968727111816
42295,1.4682087814180687,11.039664268493652,0.5339069962501526,0.8810662031173706
42335,8.37582666672814,10.129867553710938,-6.833051681518555,6.308721542358398
42374,7.537656220039748,,,
42375,,14.848838806152344,-5.856217384338379,-1.647210717201233
51602,6.616253531343522,16.263813018798828,-1.2282254695892334,0.031124621629714966
51605,7.685709178718252,15.662867546081543,-6.162675380706787,1.5610195398330688
51644,5.481137964197614,11.496956825256348,-3.5649664402008057,-4.034229755401611
51684,9.722679006351433,17.029956817626953,3.19865345954895,-1.2856862545013428
51723,6.373326100514244,13.891158103942871,0.6584054827690125,-0.912190854549408
51763,6.1309184849014144,14.992490768432617,-0.828393816947937,2.389413356781006
51803,1.3054954174520887,8.808267593383789,-2.647987127304077,0.6775590777397156
51843,3.8822175765620837,5.896918773651123,-0.7445967197418213,0.6775590777397156
51882,5.515009945733379,,,
51883,,4.3406877517700195,0.4836287498474121,1.0534487962722778
51922,6.931365178822098,,,
51923,,3.471592426300049,0.1843535304069519,-1.1420341730117798
51962,6.472389561022935,,,
51963,,3.514688014984131,1.4891934394836426,0.6727706789970398
52002,4.828868031038086,,,
52003,,8.695740699768066,3.2561142444610596,4.668693542480469
52042,5.344274483981136,,,
52043,,11.499350547790527,4.558559894561768,-0.7182605266571045
52082,8.318319248479762,,,
52083,,17.463306427001953,2.5665841102600098,2.8131868839263916
52122,5.056654392664243,9.696516990661621,-1.5658079385757446,6.244078159332275
52162,4.6859252318971825,,,
52163,,5.822698593139648,2.9544448852539062,0.13168109953403473
52201,17.919210753090436,26.6043701171875,4.434061527252197,-2.8371291160583496
52241,6.919014160847469,8.276755332946777,2.7724854946136475,-5.0685248374938965
63626,10.357183026015086,19.25656509399414,4.4077253341674805,
63627,,,,3.3279404640197754
63670,6.759283675213074,11.001357078552246,7.807491779327393,0.10295066982507706
63686,2.6654088709732493,11.671732902526855,3.2561142444610596,1.941697597503662
63706,7.00260658779554,13.687650680541992,-0.16759411990642548,-3.5960910320281982
63725,6.831017760912523,,,
63726,,16.014814376831055,4.0533833503723145,1.3982137441635132
63745,8.596286024955868,12.198457717895508,6.596025466918945,-5.343858242034912
63765,7.5678490251317445,10.716446876525879,7.496245384216309,-3.579331636428833
63785,4.7285357935340215,9.172186851501465,2.255337953567505,-2.920926094055176
63805,6.052350229319173,7.491456985473633,-3.160346269607544,0.09816227108240128
63825,8.919294261298306,6.696582317352295,-5.52821159362793,-1.8818424940109253
63845,6.70352392187806,9.028534889221191,-4.431667327880859,-0.790086567401886
63864,2.6049198333061345,,,
63865,,10.737994194030762,-0.6392518281936646,0.14365209639072418
63884,1.6404806164378551,,,
63885,,11.183316230773926,1.5825673341751099,0.5793967843055725
63904,2.2164996918433464,,,
63905,,9.945513725280762,3.0334534645080566,0.9074024558067322
63924,4.063250663068639,6.564900875091553,3.114856481552124,0.5051765441894531
63944,5.681386155783027,4.721365928649902,2.449268341064453,-0.790086567401886
63964,5.827341471921059,4.5609540939331055,1.3718775510787964,-1.3910311460494995
63984,6.062884446371924,4.410119533538818,-0.19871874153614044,-1.7812861204147339
64004,4.247628167224277,6.311115741729736,-2.049436569213867,-0.33518823981285095
64024,3.438620506075401,8.810662269592285,-2.9879636764526367,2.1523873805999756
64044,4.4071978908952705,9.2033109664917,-3.2824504375457764,3.4189200401306152
64064,4.613773226042612,,-3.2776620388031006,
64065,,8.142680168151855,,3.2082302570343018
64084,4.4229627154350855,,-2.6623523235321045,
64085,,8.458714485168457,,3.6104562282562256
64104,3.2797785774949837,9.684545516967773,-1.2425906658172607,3.3470940589904785
64124,1.407863115592597,,,
64125,,9.763554573059082,0.12210428714752197,1.766920804977417
64144,1.814842683263852,10.041281700134277,0.7876923680305481,-1.0223240852355957
64164,4.017005772080095,11.468226432800293,-3.7636849880218506,0.9409212470054626
64183,8.292513345656468,,,
64184,,,-6.1267619132995605,
64185,,9.105149269104004,,6.528987884521484
64204,8.058246762252175,12.926295280456543,-5.8657941818237305,5.770026206970215
64223,4.879034475897069,,,
64224,,13.943830490112305,-2.892195701599121,-0.4884171485900879
64243,5.700704818784095,,,
64244,,12.543222427368164,-5.1331682205200195,-1.8746598958969116
64263,7.297275442371347,,,
64264,,16.02678680419922,-3.8570590019226074,-1.867477297782898
64283,11.762331720784175,,1.7860745191574097,
64284,,20.58295249938965,,3.6128504276275635
64303,7.3076734998206145,13.697227478027344,1.8100165128707886,-4.24970817565918
64323,8.426232168045495,,1.5442601442337036,
64324,,5.829881191253662,,-5.442020416259766
64343,4.431097220085849,,1.4963760375976562,
64344,,8.248024940490723,,-1.048660397529602
64363,7.39217639471529,,,
64364,,15.454571723937988,2.497152328491211,1.9728221893310547
64384,5.734853947982241,13.716381072998047,0.24899697303771973,4.771644115447998
64403,2.435392495702444,,,
64404,,11.779472351074219,-2.5450363159179688,1.237802267074585
64422,2.8754595513640533,,,
64423,,,-3.7684733867645264,
64424,,10.553641319274902,,1.278503656387329
64443,3.091792093973325,9.351752281188965,-3.7493197917938232,0.5746083855628967
64462,3.287719452354123,,,
64463,,,-2.1811177730560303,
64464,,6.919242858886719,,0.8834604024887085
64482,5.535066828681803,,-0.016759412363171577,
64483,,4.395754337310791,,-0.19871874153614044
64502,7.723358137836997,,,
64503,,2.4827871322631836,1.137245774269104,-0.9409212470054626
64522,7.907327812218412,,,
64523,,2.7054479122161865,1.460463047027588,-1.800439715385437
64542,8.095193034669073,2.140416383743286,1.6735470294952393,
64543,,,,-0.9169792532920837
64562,6.684184741094173,,1.9800047874450684,
64563,,3.227383852005005,,0.7206547260284424
64582,4.535840254794761,6.732495307922363,2.5737667083740234,3.993528366088867
64602,4.6773563749934,8.588001251220703,2.9496564865112305,
64603,,,,4.8051629066467285
64622,3.672699791009716,8.683769226074219,2.5546131134033203,3.758896589279175
64641,2.7113822989856007,,,
64642,,9.5624418258667,2.142810583114624,3.1244332790374756
64662,1.6707433988699623,10.096348762512207,1.6879122257232666,-0.36152446269989014
64681,3.1274425878827783,,,
64682,,10.912771224975586,1.6663644313812256,-1.6687586307525635
64701,8.093626043482505,,2.873042106628418,
64702,,17.338808059692383,,2.7269957065582275
64721,9.825856054542518,,0.13168109953403473,
64722,,15.155296325683594,,9.095572471618652
64741,2.8660402419359006,,,
64742,,10.374075889587402,2.5713725090026855,3.0885202884674072
64761,5.708383304720635,11.398794174194336,6.66785192489624,1.6639702320098877
64781,3.818836137514993,,1.6184803247451782,
64782,,13.187262535095215,,-0.6751648783683777
64801,12.821170608469586,,4.065354347229004,
64802,,22.05059814453125,,-1.4389152526855469
64821,6.3336139750625335,11.987768173217773,4.908113479614258,-4.335899353027344
64840,5.73592611429679,,,
64841,,10.35252857208252,5.279214859008789,-3.6152446269989014
64860,3.6176202568728812,,2.1308395862579346,
64861,,10.402806282043457,,-2.248155355453491
64879,5.483092242257956,,,
64880,,7.687781810760498,-2.8993782997131348,0.14365209639072418
64899,9.242920099213734,,-4.611232280731201,
64900,,5.6670756340026855,,-3.5745432376861572
64919,5.592707190463463,8.47547435760498,-2.628833532333374,-1.5490485429763794
64939,3.1634101854588574,11.188104629516602,0.2537853717803955,-1.1252747774124146
64959,3.5219272667189063,,,
64960,,,3.0573954582214355,
64961,,12.734758377075195,,1.3934253454208374
64980,3.24250324963809,10.979808807373047,3.995922565460205,1.6184803247451782
64999,3.5256933193285556,,,
65000,,7.7213006019592285,3.6846764087677,-0.0933738648891449
65019,5.293222253788606,,,
65020,,4.924872875213623,2.676717519760132,-0.40701428055763245
65039,5.6892201264296896,4.309563159942627,0.9481038451194763,-0.8978256583213806
65059,6.17603789344587,4.2090067863464355,-0.7206547260284424,-1.623268723487854
65079,5.8024227606921945,4.888959884643555,-2.1332337856292725,-1.216254472732544
65099,3.4968723218701347,7.5417351722717285,-2.52109432220459,0.7565677165985107
65119,3.8021922614114105,,,
65120,,,-2.585737943649292,
65121,,9.193734169006348,,2.935291290283203
65139,4.527331953716297,8.44195556640625,-2.626439332962036,3.404554843902588
65159,4.935762316911933,,-2.561795711517334,
65160,,8.252813339233398,,3.7900211811065674
65178,4.682116659738977,,,
65179,,9.481039047241211,-1.8267759084701538,4.168305397033691
65198,3.701112095493489,,,
65199,,10.450690269470215,-0.5003881454467773,3.584120035171509
65219,0.8224509929562167,10.47702693939209,0.47884035110473633,-0.040701430290937424
65238,4.166007841794183,,,
65239,,10.848128318786621,-3.406949043273926,-1.5753847360610962
65258,7.450139949431372,,-6.3063273429870605,
65259,,8.128314971923828,,4.2951979637146
65278,9.230756383055525,,,
65279,,11.195286750793457,-6.715735912322998,7.000645637512207
65298,8.027070497934385,,,
65299,,16.007633209228516,-5.614402770996094,1.091755986213684
65318,4.4637611124524765,,-3.3016040325164795,
65319,,12.39957046508789,,-2.2170307636260986
65338,5.011244147076784,,-1.8746598958969116,
65339,,14.427459716796875,,-1.2952631711959839
65358,12.376053582241305,21.657949447631836,-0.31603461503982544,3.1507694721221924
65378,7.639434159979911,,-0.06464344263076782,
65379,,16.488866806030273,,-2.9017724990844727
65397,8.962178763747094,,,
65398,,8.305485725402832,0.11013327538967133,
65399,,,,-7.936778545379639
65418,6.0010549889352465,,,
65419,,8.04930591583252,2.233790159225464,-3.07415509223938
65437,6.295068221324755,,,
65438,,13.474567413330078,3.0861260890960693,0.6344634294509888
65458,6.0781908987831885,13.802573204040527,2.255337953567505,2.7916390895843506
65477,2.09406369264902,,,
65478,,11.298237800598145,-0.15322890877723694,1.1516109704971313
65497,1.1507549130079835,10.034099578857422,-2.121262788772583,0.35913026332855225
65517,1.9340954062392555,,,
65518,,8.71489429473877,-2.2864625453948975,0.8595184087753296
65537,2.7963020973996846,,,
65538,,7.544129371643066,-1.9704279899597168,1.2186486721038818
65557,4.4713888846463865,5.384559631347656,-1.0007762908935547,
65558,,,,0.45010992884635925
65577,6.970428127893782,,-0.2777273952960968,
65578,,3.2154128551483154,,-1.4389152526855469
65597,8.325758835858212,2.516305923461914,-0.49799394607543945,-2.9257144927978516
65617,7.1013051942178755,3.1507694721221924,0.3711012601852417,-1.434126853942871
65637,5.80637126750801,4.1156325340271,1.580173134803772,0.3711012601852417
65657,4.824388755860765,6.531382083892822,3.3877954483032227,2.7102363109588623
65676,5.728047135526768,,,
65677,,8.111555099487305,4.357447147369385,4.311957359313965
65696,5.382884430646935,,3.8762125968933105,
65697,,8.939949035644531,,4.446032524108887
65716,4.170768448169016,9.849745750427246,2.717418909072876,3.9193081855773926
65736,3.2106686964546114,,,
65737,,10.433931350708008,1.9129672050476074,3.3423056602478027
65756,1.1317263427547088,10.6709566116333,0.1412578970193863,
65757,,,,0.1628057211637497
65776,3.184469240720151,,0.47165772318840027,
65777,,12.49055004119873,,-0.8978256583213806
65796,9.076845377623073,17.906234741210938,2.126051187515259,4.479551315307617
65815,5.968945245395479,,,
65816,,11.978191375732422,1.8291701078414917,6.203376770019531
65835,6.369995247017181,,,
65836,,10.979808807373047,7.134721279144287,-0.3471592366695404
65855,3.6297597220268503,,,
65856,,13.081917762756348,2.341529369354248,1.479616641998291
65876,9.774352350267893,18.622100830078125,1.3934253454208374,-3.227383852005005
65895,5.356407834446142,,,
65896,,13.414711952209473,5.224148273468018,-0.507570743560791
65915,7.1993649944451485,8.497021675109863,5.906495571136475,-4.747702121734619
65935,6.036951720179427,,,
65936,,9.859322547912598,5.805939197540283,-3.1028854846954346
65955,3.3583474650373586,9.481039047241211,0.24660277366638184,-1.4939818382263184
65975,6.578740541921373,,-3.7876269817352295,
65976,,7.759607791900635,,-1.4053963422775269
65994,7.48696733468268,,,
65995,,7.51779317855835,-4.467580318450928,-2.207453966140747
66015,3.1557520105282553,11.621455192565918,-0.26815059781074524,-0.5339069962501526
66034,3.162214478883655,,,
66035,,12.619836807250977,2.5306711196899414,0.9433154463768005
66054,2.604293169127969,,,
66055,,11.216835021972656,3.1507694721221924,1.3479355573654175
66074,2.513027484996999,,,
66075,,8.439560890197754,3.0095114707946777,0.4884171485900879
66094,4.942769389550887,,,
66095,,5.140350818634033,2.0183119773864746,-0.4572925269603729
66114,5.711429099908468,4.568136692047119,1.1228805780410767,
66115,,,,-1.4963760375976562
66134,6.1730303877999155,4.345476150512695,0.507570743560791,-2.0638017654418945
66154,5.95027665208334,4.431667327880859,-0.49320554733276367,-1.6927006244659424
66174,3.2602586961853572,7.19936466217041,-1.86508309841156,0.5291185975074768
66194,3.558401728619698,9.265560150146484,-2.3965959548950195,2.873042106628418
66214,4.795271117627525,8.094796180725098,-3.0358476638793945,3.3710360527038574
66234,5.4391312180331175,7.2137298583984375,-3.2417490482330322,3.4763808250427246
66253,4.981603922409981,,,
66254,,8.14028549194336,-2.6408045291900635,3.840299606323242
66273,3.336141897188834,9.610325813293457,-1.482010841369629,3.00711727142334
66293,1.0493040798594002,,,
66294,,9.57201862335205,0.24181437492370605,1.1683704853057861
66313,3.1462540166296495,,,
66314,,11.274295806884766,-1.9608511924743652,-1.599326729774475
66333,6.5791122166911284,10.716446876525879,-5.983109951019287,3.0095114707946777
66353,8.885795796852378,,-5.827486991882324,
66354,,9.99100399017334,,7.259219646453857
66373,8.674239542497372,16.15607261657715,-5.655104637145996,3.2082302570343018
66393,4.24330734169055,12.591106414794922,-2.0901381969451904,-2.477998733520508
66413,4.4673564311879534,12.60547161102295,-3.181894063949585,-2.3104045391082764
66432,9.35722354367411,,,
66433,,18.923770904541016,-1.7884687185287476,1.800439715385437
66452,9.603898337719428,,,
66453,,19.09136390686035,0.3926490843296051,0.5674257874488831
66472,8.505833587432207,,,
66473,,10.790667533874512,0.2561795711517334,-7.50582218170166
66492,6.541904939171334,,,
66493,,7.493851184844971,1.7573440074920654,-3.931279182434082
66512,5.582606975317995,,2.7533318996429443,
66513,,12.327744483947754,,-0.15083470940589905
66532,7.701559963988221,,,
66533,,15.06910514831543,3.2154128551483154,3.07415509223938
66552,3.0960669270657113,11.463438034057617,0.8667010068893433,1.6543933153152466
66571,1.1291263986049078,,,
66572,,9.904812812805176,-2.097320795059204,0.27054479718208313
66592,2.395609925399553,9.028534889221191,-3.1076738834381104,0.6440402865409851
66611,3.3266153986260534,,,
66612,,7.738059997558594,-3.1890766620635986,0.9816226959228516
66631,4.112893574442147,,,
66632,,,-1.7549498081207275,
66633,,5.91128396987915,,1.2090718746185303
66651,6.024877472577373,,-0.35434186458587646,
66652,,3.931279182434082,,
66653,,,,-0.4596867263317108
66670,7.708823551020706,,-0.1412578970193863,
66671,,2.808398485183716,,-2.1092917919158936
66690,7.793360099431072,2.738966703414917,-0.07182604819536209,-2.0829553604125977
66710,6.013700737284587,3.869029998779297,1.0869675874710083,0.11971008777618408
66730,4.792795042886783,5.556941986083984,2.3511061668395996,2.315192937850952
66750,5.0764888064177365,7.331045627593994,3.5218706130981445,3.974374771118164
66770,4.994236485318758,8.20732307434082,3.579331636428833,4.19224739074707
66790,4.364619774616975,8.856152534484863,2.9951462745666504,4.067748546600342
66810,2.9744120361433444,,,
66811,,9.923966407775879,1.8531121015548706,3.3231520652770996
66830,1.0189875179570747,,-0.08379705995321274,
66831,,10.256759643554688,,0.26096799969673157
66850,3.771238076984902,,0.035913024097681046,
66851,,11.611878395080566,,-2.4229321479797363
66870,8.918544060642471,17.86792755126953,3.646369218826294,3.004723072052002
66890,7.635139352742097,13.687650680541992,2.5067291259765625,7.0772600173950195
66909,6.799083692858914,,,
66910,,11.829751014709473,7.412448406219482,-0.7493851184844971
66930,7.996937642480079,15.638925552368164,6.4595561027526855,-1.0582371950149536
66949,10.273483914462643,,,
66950,,19.838356018066406,0.5482721924781799,-0.014365210197865963
66969,3.4599390247242177,,,
66970,,12.310985565185547,4.000710964202881,-0.090979665517807
66990,6.356083948597681,9.600749015808105,5.48272180557251,-4.580107688903809
67010,6.698374240684206,10.888829231262207,7.489062786102295,-2.6599581241607666
67029,2.8355830367752,,,
67030,,9.346963882446289,1.3551181554794312,-1.2761094570159912
67049,8.061297186501783,,-4.606443881988525,
67050,,7.3693528175354,,-2.190694570541382
67069,8.690637255306443,,,
67070,,6.892906665802002,-5.027823448181152,-2.7006595134735107
67089,4.717037269042315,,-1.9919757843017578,
67090,,10.194510459899902,,-1.2234370708465576
67128,0.8480294105000121,,,
67129,,10.093954086303711,1.702277421951294,1.7286136150360107
67167,3.984315998912111,6.275202751159668,3.0190882682800293,
67168,,,,0.47165772318840027
67327,4.586481689190345,7.532158374786377,-2.5067291259765625,3.4739866256713867
67367,1.0832726143669253,9.794678688049316,0.272938996553421,1.8148049116134644
67406,6.4493136846624095,,,
67407,,10.218452453613281,-5.65031623840332,-0.1149216815829277
67446,9.115368083776671,14.377181053161621,-6.7923502922058105,
67447,,,,4.010287761688232
67486,4.60654561764733,13.295001983642578,-1.0295066833496094,-2.3056161403656006
67526,9.355478128257303,19.02193260192871,0.16998831927776337,0.1364694982767105
67566,7.31631161719699,,,
67567,,6.45476770401001,1.5658079385757446,-4.608838081359863
67606,5.243838736655135,,,
67607,,14.121001243591309,1.37906014919281,1.41257905960083
67646,1.611200722946338,,,
67647,,10.11550235748291,-2.3918075561523438,1.1109095811843872
67686,1.5619457024626069,,-1.6543933153152466,
67687,,8.904036521911621,,1.0103530883789062
67726,5.498505475989128,,,
67727,,4.67827033996582,0.1173158809542656,-0.9576807022094727
67766,7.3400828194168515,3.1962592601776123,1.3048399686813354,-1.7070658206939697
67805,4.96385191367781,,,
67806,,4.941632270812988,1.802833914756775,0.9026140570640564
67845,4.16168820824864,8.554482460021973,1.6424223184585571,
67846,,,,4.343081951141357
67885,4.36071341146253,,2.873042106628418,
67886,,8.303091049194336,,4.019864559173584
67925,2.3908910665613954,,1.5083470344543457,
67926,,10.122684478759766,,-1.3982137441635132
67965,10.255570549458566,17.712305068969727,0.1364694982767105,7.489062786102295
68004,10.22536056367826,,,
68005,,15.349226951599121,8.315062522888184,-3.1890766620635986
68044,8.214851179858742,,,
68045,,17.034744262695312,3.2848446369171143,3.670311212539673
68084,6.992133216007858,8.329427719116211,5.9304375648498535,-4.091690540313721
68123,3.852665431823198,,,
68124,,8.702922821044922,-1.3958195447921753,-0.8451532125473022
68163,4.108004381320478,,,
68164,,13.060370445251465,0.043095629662275314,-0.7876923680305481
68203,3.46340585695712,,,
68204,,12.342109680175781,3.1651346683502197,1.3886369466781616
68223,2.4023560562438866,8.446743965148926,2.190694570541382,-0.2944868206977844
68242,5.64058881837859,,,
68243,,5.039794445037842,1.8507179021835327,-1.800439715385437
68262,6.832242584013439,,,
68263,,3.861847400665283,0.5722141861915588,-2.449268341064453
68283,7.482941874550436,3.6343982219696045,-0.47884035110473633,-3.2585084438323975
68303,5.5997272288783675,5.374982833862305,-1.0797849893569946,-2.4444799423217773
68322,2.0722185681435574,,,
68323,,8.774748802185059,-1.501164436340332,0.033518824726343155
68343,3.6011568118176664,10.101137161254883,-2.607285737991333,2.3271639347076416
68362,5.729739110842684,,-3.976768970489502,
68363,,8.954314231872559,,3.8331170082092285
68383,7.2162320588346605,6.653486728668213,-5.149928092956543,3.9600095748901367
68402,7.405102862275372,,,
68403,,6.387730121612549,-5.22175407409668,4.376600742340088
68422,5.944360243219776,,-4.558559894561768,
68423,,7.702147006988525,,3.9264907836914062
68442,4.156455128132353,,,
68443,,8.62391471862793,-4.027047157287598,2.2649147510528564
68462,1.868488321514346,10.304644584655762,-2.0422539710998535,-0.8978256583213806
68482,2.9793279822008354,12.526463508605957,-1.259350061416626,1.316810965538025
68502,6.341567392194621,12.492944717407227,-1.292868971824646,6.1052141189575195
68522,9.127093767306603,14.664484977722168,-0.9744400978088379,8.214506149291992
68541,5.919042226793821,,,
68542,,12.356474876403809,1.8076223134994507,5.109226226806641
68561,3.4321816657832196,,,
68562,,7.424419403076172,1.091755986213684,2.0470423698425293
68581,5.035017226188763,12.94066047668457,-1.7932571172714233,
68582,,,,-2.8419175148010254
68601,6.29154132777118,,,
68602,,14.041993141174316,-5.513846397399902,-0.4429273009300232
68624,8.132601424674467,14.563928604125977,-4.517858505249023,-4.577713489532471
68640,7.948842992501084,,-0.4213795065879822,
68641,,17.166425704956055,,-1.4077905416488647
68660,7.839735242304653,8.027758598327637,1.6615760326385498,-5.65031623840332
68680,4.924320061700738,6.938396453857422,-1.1252747774124146,-2.765302896499634
68700,6.819748967716189,16.112977981567383,0.2537853717803955,0.4692635238170624
68720,9.123014051067583,16.905458450317383,-0.1149216815829277,6.174646377563477
68740,3.210463737193883,,,
68741,,12.773066520690918,-2.255337953567505,0.7374141216278076
68761,2.8585265521554004,9.402029991149902,-3.7924153804779053,0.8906430602073669
68780,3.601159857297376,8.10437297821045,-3.737348794937134,
68781,,,,0.6560112833976746
68800,1.6279036182863185,8.377311706542969,-1.1180921792984009,
68801,,,,0.8212111592292786
68819,3.622791011854834,,,
68820,,6.469132900238037,0.26336219906806946,
68821,,,,2.5522189140319824
68841,6.1264092517415305,3.8498764038085938,0.1867477297782898,-0.4692635238170624
68860,8.752733947887368,1.7860745191574097,0.08379705995321274,-2.2625205516815186
68879,9.712719582686125,,,
68880,,0.38307225704193115,0.5339069962501526,-1.2234370708465576
68899,8.592600242689292,,,
68900,,1.1085153818130493,1.4173674583435059,0.9409212470054626
68920,5.348979688661829,4.853046894073486,2.298433542251587,3.2632968425750732
68939,3.6818140449457872,7.560888767242432,3.050212860107422,3.201047658920288
68959,4.6430780882191485,9.591172218322754,3.1675288677215576,
68960,,,,5.037400245666504
68979,2.2489855916743524,9.708487510681152,1.9033904075622559,3.0142998695373535
68999,3.5621567945631947,12.792220115661621,1.7190368175506592,-0.4908113479614258
69019,9.904221191598529,,,
69020,,19.06981658935547,3.3494882583618164,3.2154128551483154
69039,7.950149429164519,16.76659393310547,0.6751648783683777,4.898536682128906
69059,5.0240218088199065,11.889605522155762,5.612008571624756,1.0079588890075684
69078,5.25219099556616,,,
69079,,11.90157699584961,6.081272125244141,1.9177556037902832
69098,6.713021608683555,,-1.1875240802764893,
69099,,15.624560356140137,,0.36152446269989014
69119,7.608640537417753,,3.8810009956359863,
69120,,15.270218849182129,,-3.359065055847168
69138,8.702751548877192,,7.29034423828125,
69139,,9.576807022094727,,-5.621585369110107
69159,6.464272243904223,8.635885238647461,6.66785192489624,-3.0119056701660156
69178,1.9441082762206945,9.854534149169922,3.0334534645080566,-0.17956513166427612
69198,5.644727234919383,9.074024200439453,-3.3255462646484375,1.9776105880737305
69218,8.589507564334168,8.875306129455566,-4.903325080871582,-3.315969467163086
69238,6.459248073975201,11.571176528930664,-3.0765492916107178,-2.1140801906585693
69257,3.506664062639244,,,
69258,,12.81855583190918,0.5770025849342346,1.5394717454910278
69277,3.898093535207758,13.323732376098633,2.6575639247894287,1.436521053314209
69297,1.688205642101638,9.648633003234863,2.6144683361053467,1.7932571172714233
69317,4.5629288981305125,5.494692802429199,2.2912509441375732,-0.2537853717803955
69337,6.942354170820261,2.8395233154296875,1.2832920551300049,0.15322890877723694
69356,7.66194482879969,,,
69357,,2.365471363067627,0.3734954595565796,-1.015141487121582
69376,7.5474876013013015,2.669534921646118,-0.5841852426528931,-1.278503656387329
69396,5.232193130556663,,,
69397,,4.884171485900879,-1.2880805730819702,0.06703764945268631
69416,2.5568204136077695,9.222464561462402,-2.027888774871826,1.7142484188079834
69437,3.675582247950683,10.24000072479248,-2.607285737991333,2.846705913543701
69456,3.3343104519803712,,,
69457,,8.336610794067383,-2.10210919380188,2.363077163696289
69477,3.377242579501197,,,
69478,,7.848193168640137,-1.9057846069335938,2.2912509441375732
69497,3.4201605695541843,8.250418663024902,-1.8842366933822632,2.7964274883270264
69517,2.3511469781219407,,,
69518,,9.696516990661621,-1.8914192914962769,1.86508309841156
69536,1.9534562097098016,,,
69537,,11.731588363647461,0.181959331035614,0.5770025849342346
69556,3.588962052317644,,,
69557,,12.536040306091309,2.2242133617401123,1.1420341730117798
69577,6.3223531137752556,14.06114673614502,-4.613626480102539,1.3742717504501343
69596,9.732885745831307,,,
69597,,14.077905654907227,-8.738836288452148,2.3080103397369385
69616,12.572089487512855,,,
69617,,15.806519508361816,-11.26950740814209,
69618,,,,-1.6041151285171509
69636,7.253268327328216,,-4.3861775398254395,
69637,,15.799337387084961,,-1.4532804489135742
69655,7.787074593915302,,,
69656,,,-0.7972691655158997,
69657,,16.96770668029785,,3.0406360626220703
69675,5.136094528968295,,,
69676,,14.82968521118164,-1.3479355573654175,
69677,,,,0.5889736413955688
69698,6.985636279344561,10.520122528076172,-1.50355863571167,-6.399701118469238
69715,5.537860433245008,,0.9648633003234863,
69716,,8.006210327148438,,-3.756502389907837
69735,5.282789197913799,8.042123794555664,3.24414324760437,
69736,,,,-0.7445967197418213
69754,4.500270411525897,,,
69755,,7.989450931549072,2.7030537128448486,-0.15322890877723694
69775,2.7112873302403018,8.348581314086914,0.45489832758903503,-0.6368576288223267
69794,2.725473180862514,9.301473617553711,-0.6703764796257019,-1.7621324062347412
69814,2.0872781281572053,10.141838073730469,-1.5825673341751099,-1.0558429956436157
69834,1.662569836175101,10.836156845092773,-1.2306196689605713,1.2258312702178955
69854,3.103553574884006,10.833763122558594,-0.5650315880775452,3.1962592601776123
69874,3.445381561763535,6.531382083892822,-0.4141969084739685,-0.5770025849342346
69893,6.391460932968769,,,
69894,,4.323928356170654,-0.4692635238170624,-2.585737943649292
69913,5.43842000961012,,-0.2537853717803955,
69914,,5.2911858558654785,,-2.166752576828003
69933,4.76562359919293,5.827486991882324,1.3694833517074585,-1.5969325304031372
69953,4.611848019056884,5.66228723526001,2.2601263523101807,-0.45010992884635925
69973,4.210954938579962,6.189011573791504,2.5905263423919678,1.3215993642807007
69993,4.4804749226880975,,,
69994,,6.943184852600098,3.0597896575927734,2.6815059185028076
70013,5.087378888012501,8.7268648147583,4.412513732910156,3.423708438873291
70033,5.479292293989138,9.746794700622559,4.8602294921875,3.754108190536499
70053,2.7217664099141055,9.521739959716797,3.488351821899414,1.1180921792984009
70073,1.0027280788721793,10.273519515991211,1.7908629179000854,0.6727706789970398
70093,2.802852614829496,12.06198787689209,-0.002394201699644327,1.50355863571167
70113,6.226131792859093,14.372392654418945,-0.43335050344467163,4.390965938568115
70132,6.425071496231731,12.612654685974121,-1.2545616626739502,
70133,,,,5.947196960449219
70153,2.4765037746265897,11.389217376708984,2.7485435009002686,1.5131354331970215
70173,5.561369191643961,12.756306648254395,5.904101371765137,1.1875240802764893
70192,9.313030458229909,,,
70193,,18.782512664794922,0.031124621629714966,-0.7781155705451965
70212,8.545793928715478,,,
70213,,17.20473289489746,5.0900726318359375,-1.2665326595306396
70232,7.932940758146731,,,
70233,,7.558494567871094,4.989516258239746,-6.071695327758789
70252,6.047895951541646,9.435548782348633,5.8873419761657715,-3.1962592601776123
70272,3.6533750006348473,9.23443603515625,3.5482068061828613,-1.8626888990402222
70292,5.71160709406064,,-2.8826189041137695,
70293,,6.514622688293457,,1.2976573705673218
70312,8.672479391945012,,-4.565742492675781,
70313,,5.853823184967041,,-3.2561142444610596
70332,4.422698574406096,10.848128318786621,-1.742978811264038,-1.4724340438842773
70352,4.413179184295071,,,
70353,,14.049175262451172,1.9991583824157715,0.3064578175544739
70371,3.950509996929491,,,
70372,,13.24472427368164,2.513911724090576,1.7501614093780518
70392,1.1412264139802883,10.407594680786133,1.8052281141281128,0.8882488012313843
70412,3.473282885145427,,,
70413,,6.464344501495361,1.8291701078414917,0.31603461503982544
70433,5.099268071628811,4.81473970413208,1.6065093278884888,-0.0933738648891449
70452,6.981187336229787,3.093308687210083,0.9433154463768005,
70453,,,,-1.2952631711959839
70471,8.116791319885365,,,
70472,,2.10210919380188,0.0933738648891449,-1.8962076902389526
70491,6.8901904049103,,,
70492,,3.397372245788574,-0.4668693244457245,-1.8387469053268433
70511,1.8105154682879774,,,
70512,,8.683769226074219,-1.2976573705673218,1.115697979927063
70531,3.6275855741916683,,,
70532,,9.315838813781738,-1.9991583824157715,3.093308687210083
70551,3.842558389194006,,,
70552,,8.729259490966797,-2.030282974243164,2.918531894683838
70571,4.48128985569467,,,
70572,,8.482656478881836,-2.6168625354766846,3.1220390796661377
70591,4.177005656115479,9.406818389892578,-2.118868589401245,3.2393548488616943
70611,3.120066601458081,11.288661003112793,-0.3902548849582672,
70612,,,,2.410961151123047
70631,2.6493577286791075,,2.0254945755004883,
70632,,11.571176528930664,,0.5386953949928284
70650,4.230658557751427,,,
70651,,12.756306648254395,-2.693476915359497,-0.8786720037460327
70671,8.138050572862326,,-6.5265936851501465,
70672,,10.134655952453613,,5.190629482269287
70690,9.22043276153883,,,
70691,,11.829751014709473,-7.175422668457031,6.174646377563477
70710,6.275467825544432,,,
70711,,13.488932609558105,-5.494692802429199,-0.751779317855835
70730,1.1580151152834908,,,
70731,,9.854534149169922,-1.1563993692398071,-0.569819986820221
70750,3.9072094768902867,13.060370445251465,-1.944091796875,
70751,,,,-1.4245500564575195
70770,10.867102550665457,20.3698673248291,-1.9728221893310547,2.207453966140747
70790,7.033311872163304,,,
70791,,16.572664260864258,-1.479616641998291,-1.4077905416488647
70810,7.683119603602544,8.075642585754395,-1.3239935636520386,-6.912060260772705
70829,6.860282542468641,,,
70830,,,0.667982280254364,
70831,,6.114790916442871,,-4.383783340454102
70850,4.933461916167134,11.614272117614746,2.3798365592956543,-0.7541735172271729
70870,7.20662499913613,14.94460678100586,2.7940332889556885,2.786850690841675
70890,3.942556132205453,13.081917762756348,0.27054479718208313,1.6160861253738403
70909,2.7682853877236937,,,
70910,,12.469002723693848,-1.4317326545715332,0.7637503147125244
70929,1.7261645518706747,,,
70930,,11.305420875549316,-1.5849615335464478,0.5195417404174805
70949,1.1690016042210494,,,
70951,,9.246406555175781,-1.2114660739898682,1.292868971824646
70969,3.498240846232505,,,
70970,,6.294356346130371,-0.6129156351089478,0.8212111592292786
70989,7.0853253723681755,2.999934673309326,-0.090979665517807,-1.1061211824417114
71009,8.637828629641746,,0.3734954595565796,
71010,,1.8483237028121948,,-2.188300371170044
71029,8.165753319976966,2.557007312774658,0.14844051003456116,-2.4803929328918457
71048,7.431050300962809,,,
71049,,2.719813108444214,0.586579442024231,-1.1109095811843872
71069,4.609678924368443,5.30076265335083,1.580173134803772,1.4915876388549805
71088,5.563363340436686,,,
71089,,8.698134422302246,2.2409727573394775,5.789179801940918
71108,5.142375798633363,,,
71109,,9.251194953918457,2.4684219360351562,5.0900726318359375
71128,4.016937872461537,,,
71129,,9.653421401977539,3.141192674636841,3.471592426300049
71148,2.6736556694864526,,3.222595453262329,
71149,,9.59596061706543,,1.0342950820922852
71168,3.1338753359988702,,,
71169,,10.788272857666016,3.220201253890991,-0.5410895943641663
71188,3.345097350569941,12.830527305603027,1.8794482946395874,1.1013327836990356
71207,7.734264766023158,,,
71208,,16.4625301361084,0.5410895943641663,4.659116744995117
71228,4.103774515125812,12.18648624420166,2.363077163696289,3.6320040225982666
71248,8.580137034213317,14.618995666503906,8.054094314575195,-0.3687070608139038
71267,10.133832681633141,,,
71268,,19.74498176574707,1.113303780555725,1.968033790588379
71288,11.290242423199308,20.89898681640625,0.6488286852836609,
71289,,,,0.6392518281936646
71307,8.657690486106711,5.365406036376953,3.3039982318878174,-6.236895561218262
71327,7.034217581222554,7.357381820678711,6.63433313369751,-2.8993782997131348
71347,5.627486463519457,8.29830265045166,5.1331682205200195,
71348,,,,-2.4157495498657227
71367,5.62974009535607,,,
71368,,6.234501361846924,-2.7916390895843506,2.185906171798706
71387,8.74654298338242,6.873753070831299,-3.914519786834717,-4.338293552398682
71407,5.76525811576181,12.289437294006348,-0.33039984107017517,-3.248931646347046
71426,5.9637206293652945,,,
71427,,15.33965015411377,3.246537446975708,1.237802267074585
71446,4.883432773102755,,3.251325845718384,
71447,,12.820950508117676,,4.05817174911499
71466,1.8038600329215075,,,
71467,,9.93593692779541,1.7334020137786865,2.3726539611816406
71486,3.4797332363266142,,1.556231141090393,
71487,,6.418854713439941,,-0.031124621629714966
71507,6.368316437972472,3.6080620288848877,0.8068459630012512,-0.9074024558067322
71526,7.746277930551146,,,
71527,,2.5258827209472656,0.021547814831137657,-1.843535304069519
71546,7.667053323476957,2.96162748336792,0.011971008032560349,-2.540247917175293
71565,4.739023677215383,,,
71566,,5.188235282897949,-0.768538773059845,-0.1364694982767105
71586,2.198412027326664,8.96389102935791,-1.8195933103561401,1.644816517829895
71606,4.030333658798626,9.734824180603027,-2.406172752380371,3.421314239501953
71626,4.394041639392023,8.65982723236084,-2.8107926845550537,3.1651346683502197
71665,4.152928222403388,9.461885452270508,-2.2649147510528564,3.1962592601776123
71704,1.992675900897448,,0.751779317855835,
71705,,11.192893028259277,,0.9002198576927185
71744,4.446208736130608,10.110713958740234,-4.575319290161133,1.3718775510787964
85602,8.896599932358727,14.721946716308594,-5.0900726318359375,5.990292549133301
85616,4.371545790410556,5.499481201171875,-1.2761094570159912,-0.6560112833976746
85655,2.470396434460671,8.556877136230469,-2.126051187515259,1.7046716213226318
85695,4.549646954935161,8.564059257507324,-2.3056161403656006,3.426102638244629
85735,4.681614754374181,8.26478385925293,-2.0638017654418945,3.361459255218506
85775,2.824429030656045,8.197746276855469,1.1971008777618408,0.5961562395095825
85814,7.193856521732515,,,
85815,,7.661445617675781,-6.349422931671143,3.3518824577331543
85854,9.177853041435961,14.45858383178711,-6.524199485778809,4.54419469833374
85894,9.637670722765394,12.94066047668457,-5.20978307723999,-9.117119789123535
85934,17.114619095018682,23.336284637451172,5.918466567993164,4.884171485900879
85973,5.953245467121012,,,
85974,,9.569623947143555,1.0654197931289673,-4.2951979637146
86013,7.333326108524347,,,
86014,,14.609418869018555,1.0606313943862915,4.436455726623535
86053,3.3937460602514395,,,
86054,,8.583212852478027,-4.8051629066467285,1.8507179021835327
86093,3.7321738934742004,5.954379558563232,-1.4724340438842773,0.3495534360408783
86133,8.871395614910316,1.8052281141281128,0.7709329724311829,-2.0805611610412598
86173,7.13905073379078,,,
86174,,2.652775526046753,0.3974374830722809,1.4844050407409668
86213,4.116096829861145,,,
86214,,6.907271862030029,0.3998316824436188,3.3925838470458984
86253,5.205231294650656,9.57441234588623,1.9057846069335938,
86254,,,,4.7405195236206055
86293,3.3464851957364465,,1.8986018896102905,
86294,,8.106766700744629,,-1.6519991159439087
86332,7.400098604112376,,,
86333,,10.505757331848145,7.175422668457031,0.12210428714752197
86373,7.116890290772274,13.381193161010742,6.205770969390869,
86374,,,,1.7525556087493896
86412,11.016692933605773,,4.537012100219727,
86413,,19.694704055786133,,-3.066972494125366
86452,5.184338261047022,11.166556358337402,2.8826189041137695,
86453,,,,-4.869806289672852
86492,4.402909547991301,9.05247688293457,-1.9249382019042969,-1.5897499322891235
86532,8.178511716323635,6.45476770401001,-4.022258758544922,-3.8067808151245117
86571,2.66620368713417,,2.346317768096924,
86572,,11.973402976989746,,0.1628057211637497
115604,7.532454398315021,2.628833532333374,0.47165772318840027,-1.9776105880737305
115638,5.3084775169509415,,2.056619167327881,
115639,,4.752490520477295,,1.1468225717544556
115678,5.271173740094952,7.929595947265625,3.3710360527038574,3.8522706031799316
115717,3.436861152239489,10.285490036010742,2.0374655723571777,2.6647465229034424
115757,3.42828827210965,,,
115758,,12.521675109863281,-0.2801215946674347,-2.1356279850006104
115797,8.277381540439926,14.293384552001953,1.922544002532959,6.696582317352295
115837,7.554509000040271,8.786720275878906,7.857769966125488,3.778050184249878
115877,12.829888281867278,19.847932815551758,4.807557106018066,-7.15387487411499
115916,6.703572291676026,11.101913452148438,6.8162922859191895,-4.036623954772949
115956,3.5725580745432097,8.78193187713623,-0.8906430602073669,-1.403002142906189
115996,6.460218322654985,6.538564682006836,-3.378218650817871,-1.6041151285171509
116036,2.074386446220998,11.580753326416016,1.2713210582733154,-0.7230489253997803
116075,3.973738771358536,,,
116076,,6.347028732299805,2.8658595085144043,0.36152446269989014
116115,4.94612449982297,,,
116116,,5.238513469696045,1.745373010635376,-1.4963760375976562
116155,4.185130345583215,5.990292549133301,-1.2689268589019775,-0.646434485912323
116195,4.744527776633012,9.239224433898926,-3.3039982318878174,2.7269957065582275
116235,6.04445266504913,7.920019149780273,-3.5266590118408203,3.77565598487854
116274,3.289453913579053,,,
116275,,9.655815124511719,-1.290474772453308,2.300827741622925
116314,3.5542863891996936,,-2.6671407222747803,
116315,,11.638214111328125,,-0.22026655077934265
116354,9.968092558894872,12.99812126159668,-4.967968463897705,7.745242595672607
116394,5.499288686358282,10.433931350708008,-3.0119056701660156,-4.987122058868408
116434,9.576764008500561,17.79849624633789,3.6559460163116455,2.2912509441375732
116474,8.211525646454671,8.765172004699707,1.292868971824646,-7.371747016906738
116513,7.932407938521884,,,
116514,,16.907852172851562,1.6615760326385498,1.5466543436050415
116553,1.9173226132462373,11.640608787536621,-1.2497732639312744,0.4908113479614258
116593,3.0631096680698597,7.362170219421387,-2.2649147510528564,-0.11252748221158981
116632,6.498264374459621,,,
116633,,3.4811692237854004,-0.8020575642585754,-0.6416460275650024
116672,7.963561279858192,,-0.06703764945268631,
116673,,2.2840683460235596,,-1.601720929145813
116712,6.604059196424048,3.157952070236206,0.9313444495201111,0.9481038451194763
116752,4.4847135515714305,8.848969459533691,2.956839084625244,4.14915132522583
116792,2.697119596314055,10.943896293640137,2.7964274883270264,1.3120225667953491
116831,7.008983569497808,,,
116832,,14.506467819213867,5.896918773651123,0.2561795711517334
116871,5.627443927094067,,,
116872,,13.402741432189941,3.0526070594787598,4.089296340942383
116911,2.172010458694484,,,
116912,,10.910377502441406,3.2848446369171143,-0.07422025501728058
116951,3.6445533612757046,,,
116952,,9.624691009521484,5.142745018005371,-1.599326729774475
116991,3.7318461646360492,,,
116992,,11.137825965881348,5.109226226806641,-0.9744400978088379
117152,5.203867633048054,,,
117153,,4.680664539337158,3.1004912853240967,-0.7924807667732239
117189,6.005339154298806,,,
117190,,4.4508209228515625,0.11252748221158981,-1.403002142906189
117229,4.082660827272086,,-2.343923568725586,
117230,,9.459490776062012,,1.50355863571167
117269,4.836358712976731,8.312667846679688,-2.956839084625244,2.1763293743133545
117309,4.950185198161151,8.887276649475098,-2.4612393379211426,3.6750996112823486
117349,1.4663951745323789,10.76193618774414,2.3271639347076416,0.3423708379268646
117389,6.971019426663781,10.019734382629395,-5.578489780426025,3.0789434909820557
117429,9.105370716171102,16.069881439208984,-6.1985883712768555,1.3215993642807007
117469,6.2936312742882565,12.00452709197998,-3.4380736351013184,-4.244919776916504
117508,9.980520349059375,19.1440372467041,2.6144683361053467,1.3670891523361206
117548,7.67115994790156,6.694188117980957,1.3694833517074585,-5.054159641265869
117588,7.647717014312563,16.15128517150879,1.0989385843276978,4.819528102874756
117628,1.9229027085987607,9.459490776062012,-2.2170307636260986,0.49559974670410156
117667,3.7035679290750747,,,
117668,,7.206547260284424,-2.585737943649292,0.6200982332229614
117708,7.761776252460626,2.5067291259765625,-0.05267243832349777,-1.4628572463989258
117747,7.912779030844145,,,
117748,,2.5043349266052246,0.6272808313369751,-1.7477672100067139
127622,7.045444656320383,,,
127623,,8.202534675598145,6.660669326782227,-3.2848446369171143
127665,2.7792050848444934,8.834604263305664,-0.5985504388809204,-0.8140285611152649
127682,8.702452601101259,7.527369976043701,-4.78122091293335,-5.284003257751465
127702,6.889777375764594,8.391676902770996,-3.957615375518799,-4.537012100219727
127721,1.3997066854706586,,,
127722,,11.106701850891113,-0.13407529890537262,-0.15083470940589905
127741,3.9153862882705397,,,
127742,,12.303802490234375,1.2473790645599365,2.3918075561523438
127761,2.43779625681725,9.66299819946289,1.335964560508728,1.41257905960083
127781,3.450654678148004,7.675810813903809,2.118868589401245,0.8667010068893433
127801,5.534380355651435,4.9152960777282715,2.4133553504943848,-0.27054479718208313
127821,6.605415041731682,3.4189200401306152,1.3646949529647827,-1.2018892765045166
127841,6.390443533487132,3.9432501792907715,0.6105214357376099,-2.8347349166870117
127860,4.070438785753857,,,
127861,,5.940014362335205,-0.8571242094039917,-1.845929503440857
127881,2.32786056757756,10.120290756225586,-1.9608511924743652,0.9026140570640564
127900,4.948377000241941,,,
127901,,10.565611839294434,-2.3056161403656006,3.3686418533325195
127920,5.421630150271054,,,
127921,,8.911218643188477,-3.1316158771514893,3.3446998596191406
127940,6.049471354441882,7.848193168640137,-3.711012601852417,3.4524388313293457
127960,5.522592784815347,8.38688850402832,-3.043030261993408,3.485957622528076
127980,3.4486213417292384,9.124302864074707,-1.7717092037200928,2.0422539710998535
128000,1.2793758921207807,,0.8307880163192749,
128001,,10.074800491333008,,-0.5315127968788147
128020,2.6680162015076987,12.210428237915039,-1.0414776802062988,-1.5394717454910278
128040,5.208568028566309,10.113107681274414,-4.611232280731201,2.58813214302063
128060,8.339563812631985,11.868058204650879,-5.128379821777344,6.1315507888793945
128079,8.529347637314595,,,
128080,,16.790536880493164,-3.890577793121338,3.1962592601776123
128099,3.9963500536390333,,,
128100,,12.205639839172363,-0.49559974670410156,-3.5865142345428467
128119,5.098194640510433,,,
128120,,13.366827964782715,-2.2457611560821533,-4.046200752258301
128139,9.70767061211797,18.9453182220459,0.15322890877723694,1.6065093278884888
128159,7.9003039530938,17.130512237548828,0.545877993106842,-2.0015525817871094
128180,7.596179463641421,8.068459510803223,0.9217676520347595,-7.079654216766357
128200,6.42698863086968,7.223306655883789,2.4468741416931152,
128201,,,,-3.88818359375
128220,7.2220977022570985,14.444218635559082,3.4955344200134277,1.036689281463623
128240,7.7355327317701335,15.112200736999512,2.5737667083740234,3.378218650817871
128260,2.6028008706846024,11.712434768676758,-0.6536170840263367,1.113303780555725
128280,1.0917470849000217,10.163386344909668,-2.0470423698425293,-0.48602294921875
128299,2.4376878910518687,,,
128300,,9.093177795410156,-2.9257144927978516,0.7158663272857666
128319,3.915277897702199,,,
128320,,6.799532890319824,-3.028665065765381,0.43335050344467163
128339,5.33825311640792,,,
128340,,4.5609540939331055,-1.2545616626739502,-0.35673606395721436
128359,7.582710687695464,,0.08619125932455063,
128360,,2.3965959548950195,,-1.2186486721038818
128379,7.633775257938939,2.6001031398773193,0.2059013396501541,-2.0183119773864746
128399,6.874756687367055,3.0550012588500977,0.7350199222564697,-0.667982280254364
128419,5.651513239672482,,,
128420,,4.314351558685303,1.2880805730819702,1.41257905960083
128439,4.834367487974933,5.870582580566406,2.3702597618103027,2.2242133617401123
128459,4.830714842851349,7.6111674308776855,3.3494882583618164,
128460,,,,3.2082302570343018
128479,4.891253251255748,8.580819129943848,3.07415509223938,3.8738183975219727
128499,3.9502888634240647,9.847352027893066,2.322375535964966,3.421314239501953
128519,2.22202135078892,10.826580047607422,1.6041151285171509,1.6759412288665771
128538,2.5742063391795855,,,
128539,,11.408370971679688,0.1173158809542656,-1.8483237028121948
128558,9.84748115671393,,2.875436305999756,
128559,,19.275718688964844,,1.501164436340332
128578,9.474352296617942,,,
128579,,16.572664260864258,1.6112977266311646,6.8378400802612305
128598,4.26482476074553,11.245565414428711,2.3798365592956543,4.019864559173584
128619,6.277644550781529,9.75637149810791,6.97430944442749,2.695871114730835
128638,2.1641790585854093,,2.5498247146606445,
128639,,11.35809326171875,,1.256955862045288
128658,13.061793258019144,,,
128659,,18.15044403076172,3.8810009956359863,-9.083600997924805
128678,6.015327584977384,11.544840812683105,5.896918773651123,
128679,,,,-3.4117374420166016
128698,7.227360597821137,9.8784761428833,6.543353080749512,-4.726154327392578
128717,3.9553838616397172,,,
128718,,10.457873344421387,4.8482584953308105,-1.4700398445129395
128737,2.883223672299261,,,
128738,,8.860940933227539,-0.5099649429321289,-0.19393034279346466
128757,8.262985182928793,,,
128758,,6.268020153045654,-4.146757125854492,-3.3255462646484375
128777,6.95792742552248,7.433996200561523,-4.264073371887207,
128778,,,,-1.4413094520568848
128796,3.794059682960806,,,
128797,,11.346121788024902,-1.5658079385757446,
128798,,,,-0.5410895943641663
128816,3.1584807717995744,,,
128817,,12.847286224365234,0.8954314589500427,0.31364041566848755
128836,2.018062566628485,,,
128837,,10.647014617919922,2.7964274883270264,0.5482721924781799
128856,4.318198378316711,,,
128857,,6.457161903381348,3.5003228187561035,-0.2082955539226532
128876,6.387036796840101,,,
128877,,4.180276393890381,3.3016040325164795,-1.2066776752471924
128896,6.422652223059345,,,
128897,,3.9025487899780273,2.0159177780151367,-1.7908629179000854
128916,6.5431069248469775,3.794809579849243,0.5339069962501526,-2.427720546722412
128936,3.9404415466054505,,-0.9481038451194763,
128937,,6.189011573791504,,-0.9696516990661621
128956,3.050198351554483,,,
128957,,9.366117477416992,-2.279279947280884,1.1994950771331787
128976,4.947796093994188,9.835380554199219,-2.846705913543701,3.1914708614349365
128996,5.141424887901183,8.60236644744873,-3.0885202884674072,2.846705913543701
129016,5.132983246957836,8.760383605957031,-2.846705913543701,2.9903578758239746
129036,3.6107092038677138,9.806650161743164,-1.3742717504501343,2.248155355453491
129055,1.8913619441594718,,1.1755530834197998,
129056,,10.860098838806152,,0.5889736413955688
129075,3.2187799248646862,,-1.460463047027588,
129076,,12.27507209777832,,-1.216254472732544
129095,7.090791463432052,9.859322547912598,-6.22731876373291,
129096,,,,2.0159177780151367
129115,10.33433302278763,,,
129116,,9.78989028930664,-6.878541469573975,7.101202011108398
129135,8.7390539094585,,,
129136,,15.998055458068848,-6.124367713928223,0.9193734526634216
129155,4.238363829480641,,,
129156,,13.263877868652344,-1.534683346748352,-2.4133553504943848
129175,4.614055158413564,12.617443084716797,-1.7142484188079834,-3.8067808151245117
129195,7.538449467060958,17.152061462402344,0.5363011956214905,
129196,,,,-0.29209262132644653
129215,6.984819026888163,16.010026931762695,1.460463047027588,-1.8555063009262085
129235,7.0371684617974575,9.773131370544434,2.1499931812286377,-5.827486991882324
129254,5.842107368566532,,1.7860745191574097,
129255,,9.461885452270508,,-4.084507942199707
129275,7.593461647367363,16.196775436401367,2.145204782485962,0.35673606395721436
129294,9.43089700067309,,,
129295,,17.24782943725586,1.9967641830444336,4.862623691558838
129314,3.663564814947364,,,
129315,,13.15613842010498,-0.47405192255973816,1.3551181554794312
129334,1.7508234402817198,,,
129335,,8.923190116882324,-2.2912509441375732,-0.27054479718208313
129354,3.3849705954870584,7.242460250854492,-2.8347349166870117,
129355,,,,0.6392518281936646
129375,5.427309681961324,5.008669853210449,-2.978386878967285,0.6177040338516235
129394,6.232588356637314,3.8067808151245117,-1.3623007535934448,-0.524330198764801
129414,7.6657240191353635,2.561795711517334,-0.1364694982767105,-1.6112977266311646
129433,7.659884839499516,,,
129434,,2.5905263423919678,0.2753331959247589,-1.6280571222305298
129454,7.0984032783128415,2.978386878967285,0.5339069962501526,-1.0223240852355957
129473,5.67692135454366,,,
129474,,4.141968727111816,1.4173674583435059,1.1204863786697388
129493,4.748941403934967,,,
129494,,6.0597243309021,2.5115175247192383,3.00711727142334
129513,4.601053672857196,,3.2082302570343018,
129514,,7.271190643310547,,3.375824451446533
129533,4.348193413932483,,,
129534,,8.786720275878906,3.069366693496704,3.8163576126098633
129553,3.6233310145909092,,2.5306711196899414,
129554,,10.445901870727539,,3.3231520652770996
129574,2.270316377178329,11.853693008422852,1.6328455209732056,0.31124621629714966
129593,4.690501561786655,,,
129594,,13.778631210327148,1.2401964664459229,-1.900996208190918
129613,10.68879343872737,20.128053665161133,2.983175277709961,1.8148049116134644
129633,6.411862775584774,13.436260223388672,2.274491548538208,5.669469833374023
129652,5.000149724625929,10.462661743164062,5.990292549133301,
129653,,,,0.9959878921508789
129674,8.069572244909907,11.305420875549316,8.01339340209961,4.963180065155029
129692,8.255427569216868,16.8839111328125,1.7381904125213623,-3.24414324760437
129712,5.797669883170199,,1.764526605606079,
129713,,14.279019355773926,,-2.650381326675415
129732,8.374486195759639,,6.1315507888793945,
129733,,8.269572257995605,,-6.217741966247559
129752,6.579952611317767,9.919178009033203,7.015010833740234,-2.942473888397217
129772,0.9684679482158116,,,
129773,,10.158597946166992,1.7573440074920654,0.8738836050033569
129791,7.390282782279091,,,
129792,,7.85537576675415,-3.4811692237854004,-2.985569477081299
129812,9.338300155407325,5.889736175537109,-4.668693542480469,-3.8786067962646484
129831,4.546374526123767,,-1.678335428237915,
129832,,9.68694019317627,,-1.6304513216018677
129851,3.081219197519719,,1.259350061416626,
129852,,12.684480667114258,,0.768538773059845
129871,2.630905139641162,,,
129872,,11.453861236572266,2.6886885166168213,1.9608511924743652
129892,1.8681555118155726,8.5903959274292,2.585737943649292,0.26815059781074524
129912,4.908826018100108,5.324704647064209,2.8155810832977295,-0.4405331015586853
129931,6.017981605164447,,1.9297266006469727,
129932,,4.041412353515625,,-0.933738648891449
129951,6.185374501762264,4.065354347229004,0.811634361743927,-1.889025092124939
129971,5.743597695673514,4.467580318450928,-0.7852981686592102,-1.4437036514282227
129991,3.1197020826177537,7.630321025848389,-1.9153614044189453,0.08140286058187485
130011,3.7282992300680187,,-2.3798365592956543,
130012,,9.81143856048584,,2.4013843536376953
130030,4.798445354468905,,,
130031,,9.157821655273438,-2.9664158821105957,3.043030261993408
130051,5.329292594529359,7.9176249504089355,-3.3638534545898438,2.892195701599121
130071,4.559451404164057,8.822632789611816,-2.3247697353363037,3.0765492916107178
130091,2.4969094246602688,9.873687744140625,-0.49320554733276367,1.8579005002975464
130110,1.8998166949540867,,1.9967641830444336,
130111,,10.338163375854492,,0.35434186458587646
130130,3.929906395338577,,,
130131,,12.662932395935059,-2.250549554824829,-0.933738648891449
130150,8.223124337181464,,,
130151,,9.77791976928711,-6.785167694091797,3.9480385780334473
130170,9.758599035053809,11.51611042022705,-6.979097843170166,6.3302693367004395
130190,6.578004088389216,14.867992401123047,-4.2975921630859375,1.237802267074585
130210,4.040931372596202,11.44907283782959,-1.0558429956436157,-3.643975019454956
130229,6.080656255139248,,,
130230,,13.421895027160645,-3.1962592601776123,-4.426878929138184
130249,8.368758879493749,,,
130250,,17.640478134155273,1.7357962131500244,0.31364041566848755
130269,8.65798216748004,,3.2609026432037354,
130270,,16.982072830200195,,-1.4389152526855469
130289,7.451237405511317,,3.670311212539673,
130290,,9.737217903137207,,-4.884171485900879
130309,6.636779677104091,10.070012092590332,1.0845733880996704,
130310,,,,-5.066130638122559
130329,7.586835311105797,,1.6089035272598267,
130330,,16.4625301361084,,0.6727706789970398
130351,7.652055112760916,15.837644577026367,0.9002198576927185,4.381389141082764
130369,2.305723933565899,11.678915977478027,-1.7764976024627686,1.4389152526855469
130388,2.2105788084838927,,,
130389,,9.277531623840332,-3.043030261993408,0.4644751250743866
130408,2.728870016578806,,,
130409,,8.449137687683105,-2.983175277709961,0.9552865028381348
130428,4.3548584651612865,,-2.80361008644104,
130429,,6.1267619132995605,,0.33039984107017517
130448,6.521167913106343,3.6990416049957275,-1.1348515748977661,-1.3048399686813354
130468,8.285238205334872,1.867477297782898,0.05267243832349777,-1.4484920501708984
130488,8.407175686718087,,,
130489,,1.98958158493042,0.15322890877723694,-2.0877439975738525
130508,7.533445932452659,2.434903144836426,0.828393816947937,
130509,,,,-0.6392518281936646
130527,5.899487049628168,,,
130528,,4.089296340942383,1.5466543436050415,2.0398597717285156
130547,5.048431439928852,,,
130548,,5.74129581451416,2.612074136734009,2.693476915359497
130567,5.07651604619116,7.522581577301025,3.77565598487854,3.512293815612793
130587,4.844755203786786,9.11233139038086,3.464409828186035,3.9863457679748535
130606,2.780056643835181,,,
130607,,10.644620895385742,2.7269957065582275,1.742978811264038
130627,3.2773111589559494,,,
130628,,12.260706901550293,1.479616641998291,-1.8315643072128296
130647,5.066101112088592,14.290989875793457,2.0638017654418945,-1.4867992401123047
130667,10.776328204576636,19.970035552978516,2.5091233253479004,3.332728862762451
130687,7.5749812261266944,14.31014347076416,1.8842366933822632,6.344634532928467
130707,4.72779151764091,,,
130708,,12.248735427856445,4.6471452713012695,1.9991583824157715
130727,6.1166193711672365,10.165780067443848,6.045359134674072,4.343081951141357
130747,2.5125400748781406,11.487380027770996,0.9744400978088379,-0.8858546018600464
130766,7.916711934278132,,,
130767,,14.990097045898438,4.975151062011719,-3.952826976776123
130786,7.451344147336827,,,
130787,,10.90558910369873,6.919242858886719,-4.271255970001221
130806,6.828907657697773,9.586383819580078,6.399701118469238,-3.801992416381836
130826,2.6340454112593923,10.639832496643066,1.6903064250946045,-1.0749965906143188
130846,5.972129304542541,,,
130847,,8.853757858276367,-1.7956513166427612,-3.3854012489318848
130866,7.392319595875733,6.5481414794921875,-2.9520506858825684,-3.5625722408294678
130886,4.220084876341398,8.863334655761719,-1.9345149993896484,-1.1109095811843872
130906,2.6360191490855494,11.674127578735352,-0.13168109953403473,-0.08619125932455063
130926,2.424533394037395,12.09550666809082,1.6950948238372803,0.47165772318840027
130946,1.209633746794447,9.32541561126709,2.1045033931732178,0.4620809257030487
130966,3.6842489620584424,6.57926607131958,2.6024973392486572,
130967,,,,-0.12449848651885986
130985,5.429855761219305,,,
130986,,4.903325080871582,2.3056161403656006,-1.3718775510787964
131005,5.803584655075931,,,
131006,,4.460397720336914,1.0414776802062988,-1.824381709098816
131025,5.75650916494652,4.460397720336914,-0.33997663855552673,
131026,,,,-1.6759412288665771
131045,4.514050905629364,,,
131046,,,-1.501164436340332,
131047,,5.688623428344727,,-0.12210428714752197
131065,3.527894442841098,7.922413349151611,-2.293645143508911,1.4293384552001953
131104,5.91457365742217,,,
131105,,7.915230751037598,-3.7900211811065674,3.3039982318878174
131144,4.301709815460102,10.251971244812012,-1.4844050407409668,2.999934673309326
131303,6.622143399468559,16.299724578857422,-0.42377370595932007,-0.7493851184844971
131343,5.9711650336538895,12.397176742553711,2.032677173614502,-5.118803024291992
131382,4.572670248542344,,,
131383,,13.510479927062988,1.41257905960083,-1.4197616577148438
131422,5.151513530948541,,-0.7541735172271729,
131423,,14.09466552734375,,2.956839084625244
131462,3.905137170587732,8.401253700256348,-3.141192674636841,0.5889736413955688
131502,5.723833669936917,4.4532151222229,-1.113303780555725,-0.38307225704193115
131542,7.695760119437064,2.695871114730835,0.3734954595565796,-2.248155355453491
131582,6.746525753394182,,,
131583,,2.959233283996582,0.8307880163192749,0.6631938815116882
131623,4.662661445829286,7.390900611877441,3.071760892868042,3.9432501792907715
131662,3.517629094577978,10.326191902160645,3.7421371936798096,2.557007312774658
131701,4.32250898652607,,,
131702,,13.891158103942871,2.5282769203186035,-0.033518824726343155
131740,7.417336708691177,,,
131741,,14.322114944458008,2.188300371170044,5.894524574279785
131780,6.594005127802698,,,
131781,,9.481039047241211,7.884106159210205,3.464409828186035
131820,14.59386814894626,21.729774475097656,3.1076738834381104,-7.587224960327148
131860,5.481347272612239,9.248801231384277,5.22175407409668,-3.9647979736328125
131899,4.307174711780651,,,
131900,,9.531316757202148,-1.482010841369629,-0.7182605266571045
131940,5.541163983407785,7.501033782958984,-1.965639591217041,-2.10210919380188
131979,3.4309794223738694,,2.9975404739379883,
131980,,12.787431716918945,,0.9576807022094727
132020,3.2716387265360174,6.689399719238281,2.63362193107605,-0.06224924325942993
132060,6.127936146037433,,0.9696516990661621,
132061,,3.9001545906066895,,-1.558625340461731
132099,4.587928872499151,5.899312973022461,-1.3455413579940796,-1.192312479019165
132139,4.793771342363059,10.465055465698242,-2.540247917175293,3.0861260890960693
132190,5.376431651520067,8.449137687683105,-2.9041666984558105,3.177105665206909
132199,3.8954468533711206,9.430760383605957,-1.6041151285171509,2.7030537128448486
132219,1.72072349302467,,,
132220,,,-0.08140286058187485,
132221,,10.091560363769531,,1.213860273361206
132239,2.3122113021860766,,,
132240,,,-0.043095629662275314,
132241,,11.966219902038574,,-0.7733271718025208
132259,5.948896533358066,,,
132261,,11.702857971191406,-5.037400245666504,1.5275006294250488
132279,8.37552333733937,9.23682975769043,-6.739677906036377,4.941632270812988
132299,9.041995931744689,14.065935134887695,-6.694188117980957,5.082890033721924
132319,6.168635423518013,,-2.4684219360351562,
132320,,14.480132102966309,,-3.3423056602478027
132339,2.399800562519345,11.578359603881836,-0.3687070608139038,-1.1851298809051514
132359,6.228603511942655,,,
132360,,15.490485191345215,-1.161187767982483,-2.3774423599243164
132379,8.542730299312796,17.836803436279297,1.158793568611145,1.0630255937576294
132398,6.715067009268399,,1.7573440074920654,
132399,,13.211204528808594,,-4.223371982574463
132418,7.788610447169245,,,
132419,,7.249642848968506,2.3487119674682617,-5.305551052093506
132438,5.451126038301556,11.240777015686035,2.0638017654418945,
132439,,,,-2.5067291259765625
132459,7.589256684063438,16.146495819091797,2.183511972427368,2.126051187515259
132478,5.741808820421787,,0.26336219906806946,
132479,,14.144943237304688,,3.883395195007324
132499,1.3431978200109806,10.11550235748291,-2.140416383743286,-0.014365210197865963
132517,2.5597663813030604,,,
132518,,8.461109161376953,-2.695871114730835,0.9959878921508789
132537,3.3140786206088504,7.445967197418213,-2.6671407222747803,0.9217676520347595
132557,4.9632217074605105,,,
132558,,5.305551052093506,-1.965639591217041,-0.3232172429561615
132577,7.557187066295267,2.6216509342193604,-0.4668693244457245,-1.381454348564148
132596,8.103434891665202,,,
132597,,2.513911724090576,-0.004788403399288654,-2.4803929328918457
132616,7.469684622157229,3.1244332790374756,0.2346317619085312,-2.252943754196167
132636,5.916651049669457,4.0078935623168945,1.173158884048462,-0.12210428714752197
132656,5.220750436736147,,,
132657,,4.876988887786865,2.0901381969451904,1.9273324012756348
132676,4.7430292479103695,6.476315498352051,3.265691041946411,2.760514497756958
132695,4.69903325628806,,,
132696,,8.355764389038086,3.778050184249878,3.6583402156829834
132715,3.849293998290897,,,
132716,,9.950302124023438,2.9688100814819336,3.4141316413879395
132735,3.492023643387393,,,
132736,,11.848904609680176,2.118868589401245,2.719813108444214
132755,3.176163053377169,,,
132756,,12.868834495544434,0.5171475410461426,0.9361328482627869
132775,6.0458734358078186,,,
132776,,15.27979564666748,1.1204863786697388,-1.9943699836730957
132795,10.934628878183899,20.2333984375,3.5386300086975098,2.075772762298584
132815,6.1207893067038786,12.36365795135498,4.884171485900879,4.551377296447754
132835,8.156974438762752,,9.097966194152832,
132836,,11.190498352050781,,2.0901381969451904
132855,4.619857403424755,11.987768173217773,3.488351821899414,4.316745758056641
132875,10.555928911889806,15.571887969970703,-0.9217676520347595,-7.398083209991455
132894,4.451125596238139,,,
132895,,11.417947769165039,5.564124584197998,-0.8906430602073669
132915,6.805998613463335,9.294290542602539,6.179434776306152,-4.223371982574463
132935,4.720544334963858,9.708487510681152,6.4380083084106445,-0.3016694188117981
132955,1.968505965351952,,0.6248866319656372,
132956,,10.019734382629395,,0.2513911724090576
132974,7.870584854826943,,,
132975,,7.283161640167236,-3.7852327823638916,-3.292027235031128
132994,8.180828608770277,,,
132995,,6.5912370681762695,-4.326322555541992,-2.9305028915405273
133015,3.5533283695474944,,-1.2282254695892334,
133016,,9.86650562286377,,-0.8212111592292786
133035,1.8481241484592656,11.432312965393066,1.403002142906189,
133036,,,,1.1061211824417114
133055,1.127155993100326,9.90241813659668,2.3774423599243164,0.8188169598579407
133075,3.3350102656948506,6.6630635261535645,2.3702597618103027,0.07182604819536209
133094,5.001761698308899,,,
133095,,4.965574264526367,2.2002713680267334,-0.2801215946674347
133115,5.5139266471093125,4.584896087646484,1.2976573705673218,-1.460463047027588
133135,6.149124281647944,4.1180267333984375,0.5027823448181152,-2.1045033931732178
133155,4.749884754589817,5.461174011230469,-0.33039984107017517,-1.6759412288665771
133175,1.7650795828408408,9.363722801208496,-1.113303780555725,0.8475474119186401
133195,3.867244958932353,,-1.946485996246338,
133196,,9.818621635437012,,2.734178304672241
133214,5.161699039865596,8.324639320373535,-2.964021682739258,3.0526070594787598
133234,6.438202754799981,,-4.0533833503723145,
133235,,8.099584579467773,,3.6822822093963623
133254,5.571441835520399,,,
133255,,9.569623947143555,-3.9408559799194336,2.851494312286377
133274,2.8532990485059706,10.558429718017578,-0.9217676520347595,1.8387469053268433
133293,2.7780725566432505,,,
133294,,11.104307174682617,2.52109432220459,-1.5873557329177856
133314,4.226235537477449,12.543222427368164,-2.408566951751709,-1.8531121015548706
133334,7.591065485656117,9.873687744140625,-5.252878665924072,5.250484466552734
133354,9.84109083316586,14.446613311767578,-5.9088897705078125,6.339846134185791
133373,5.499009129826219,,,
133374,,14.664484977722168,-2.8826189041137695,-0.8954314589500427
133394,2.8870035116229156,9.406818389892578,-0.4884171485900879,-2.8802247047424316
133413,6.037331790831765,,-3.071760892868042,
133414,,13.994109153747559,,-3.8738183975219727
133434,7.819753956546073,17.475278854370117,-0.16519992053508759,0.5171475410461426
133453,7.485865179806164,16.393098831176758,-0.028730420395731926,-3.711012601852417
133473,6.32569126377502,9.162610054016113,0.7733271718025208,-5.9088897705078125
133492,4.982229315051035,,,
133493,,10.38844108581543,1.8579005002975464,-3.378218650817871
133512,7.670908569873162,,,
133513,,15.243882179260254,3.864241600036621,1.0654197931289673
133532,6.800347364192629,,,
133533,,13.627796173095703,3.2824504375457764,3.354276657104492
133552,1.867275858428456,,,
133553,,10.591948509216309,0.7469909191131592,0.2801215946674347
133572,1.1879400140793226,8.793902397155762,-1.0127472877502441,
133573,,,,-0.4836287498474121
133592,3.3544172742271927,,,
133593,,7.268796443939209,-2.4612393379211426,0.12210428714752197
133612,5.14543506558582,5.643133640289307,-3.047818660736084,-0.05027823522686958
133632,6.013290626109197,4.165910720825195,-1.4963760375976562,-0.8738836050033569
133651,7.066080181808171,,,
133652,,3.069366693496704,-0.2106897532939911,-1.5514427423477173
133671,7.122224501386103,,,
133672,,3.0190882682800293,0.3758896589279175,-1.6136919260025024
133692,6.800377375285071,3.141192674636841,1.0869675874710083,
133693,,,,-0.7326257228851318
133712,5.750540998135761,4.218583583831787,2.013523578643799,1.0414776802062988
133731,4.596609043334621,,,
133732,,6.493074893951416,3.2776620388031006,2.22660756111145
133751,4.915561271589043,,,
133752,,8.135497093200684,4.027047157287598,3.3925838470458984
133771,5.439019352654915,,,
133772,,9.59596061706543,3.6128504276275635,4.632780075073242
133791,3.9701523593521855,10.845733642578125,2.3558945655822754,
133792,,,,3.4548330307006836
133812,2.7653435170523513,12.495338439941406,1.2617442607879639,0.24181437492370605
133831,3.4704424878834317,13.148955345153809,1.3407529592514038,
133832,,,,-0.3447650372982025
133852,10.823526922698845,20.11129379272461,2.6431987285614014,2.9951462745666504
133871,6.061837386268176,13.953407287597656,1.9057846069335938,4.721365928649902
133890,8.901829529356679,,,
133891,,12.021286964416504,9.320627212524414,-2.2457611560821533
133910,6.039061552494266,,,
133911,,13.742717742919922,5.60722017288208,
133912,,,,2.142810583114624
133931,12.231184230309886,19.25177574157715,1.2521674633026123,-7.007828235626221
133951,3.8982499866836657,9.045293807983398,4.862623691558838,-1.889025092124939
133971,6.774890361053592,,6.540958881378174,
133972,,9.081207275390625,,-4.05817174911499
133990,4.622817065607324,,,
133991,,10.618284225463867,6.0836663246154785,-0.6775590777397156
134010,3.1285281292182843,,,
134011,,9.162610054016113,-0.49320554733276367,-0.3878606855869293
134030,9.246651945682277,,-4.910507678985596,
134031,,6.490680694580078,,-3.8522706031799316
134050,7.446377624985636,,,
134051,,7.3023152351379395,-3.9384617805480957,-2.829946517944336
134070,2.828993521679243,10.845733642578125,-0.4405331015586853,
134071,,,,-0.7422025203704834
134089,2.231973704877075,,,
134090,,11.796232223510742,1.867477297782898,0.9217676520347595
134109,1.0688829551224979,,,
134110,,9.696516990661621,2.1547815799713135,0.08858546614646912
134129,4.560423705175599,,,
134130,,5.461174011230469,2.3487119674682617,0.040701430290937424
134150,5.958031422184208,4.355052947998047,2.1308395862579346,-1.7741034030914307
134170,5.911157254745642,,,
134171,,4.41969633102417,1.235408067703247,-2.1523873805999756
134189,5.607225946812159,,,
134191,,4.4532151222229,-0.35434186458587646,-1.4508862495422363
134209,3.5876066025901907,,,
134210,,6.7708024978637695,-1.6352397203445435,-0.48602294921875
134229,2.862914849083966,,,
134230,,9.62947940826416,-1.766920804977417,1.5969325304031372
134248,4.573079841268807,,,
134249,,10.287884712219238,-2.279279947280884,3.066972494125366
134268,4.8801180065457945,,,
134269,,9.016563415527344,-3.0310592651367188,2.6647465229034424
134288,5.096024268818652,,,
134289,,9.445125579833984,-2.9664158821105957,3.0190882682800293
134308,3.408704241007297,,,
134309,,10.02691650390625,-1.4437036514282227,2.0638017654418945
134329,1.0268220338262133,9.959878921508789,1.1324573755264282,-0.06703764945268631
134348,2.8136801892588963,,0.6871358752250671,
134349,,11.959037780761719,,-2.231395959854126
134368,5.807737634980387,,,
134369,,10.697293281555176,-5.219359874725342,1.3766659498214722
134388,9.930015960711264,,-6.919242858886719,
134389,,9.057265281677246,,6.672640323638916
134408,8.37637864337842,14.449007034301758,-6.825869083404541,1.6831238269805908
134428,5.141061317919616,13.795390129089355,-2.5905263423919678,-2.738966703414917
134448,3.2785422642322204,12.361263275146484,-0.6967126727104187,-2.4205379486083984
134468,7.909978537741383,,,
134469,,17.647661209106445,-0.8523358106613159,
134470,,,,-1.1276689767837524
134488,7.55917083350982,16.836027145385742,0.43095630407333374,-2.7724854946136475
134508,6.7789460236746635,10.108319282531738,1.3527239561080933,-6.4380083084106445
134527,6.242118138010282,9.02135181427002,2.6623523235321045,-4.417302131652832
134547,6.951865778708316,14.453795433044434,3.4308910369873047,-0.8236053586006165
134567,9.42055986882879,16.64688491821289,3.825934410095215,
134568,,,,3.847482204437256
134587,4.666658174416217,12.816162109375,1.4987702369689941,2.343923568725586
134608,0.6501610611396308,9.564835548400879,-1.0845733880996704,-0.5171475410461426
134627,2.943786873556132,7.4986395835876465,-2.2888567447662354,-0.15801730751991272
134647,4.618435298950901,5.92325496673584,-2.782062292098999,0.6416460275650024
134666,6.1266766802872334,,,
134667,,4.220977783203125,-2.451662540435791,-0.40940847992897034
134687,7.336504279556124,2.82515811920166,-0.5985504388809204,
134688,,,,-1.4413094520568848
134706,7.843613581591968,,,
134707,,2.142810583114624,0.304063618183136,-0.9241618514060974
134726,7.356367464513258,,,
134727,,2.561795711517334,0.8906430602073669,-0.45489832758903503
134746,6.130420388373345,,,
134747,,3.737348794937134,1.6519991159439087,1.036689281463623
134766,4.77040355806629,5.679046630859375,2.4420857429504395,
134767,,,,2.365471363067627
134786,4.002919085624225,7.608773231506348,3.0526070594787598,2.8826189041137695
134806,4.413288744060618,,,
134807,,8.75080680847168,3.023876667022705,3.9456443786621094
134825,4.395730088213202,,,
134826,,10.108319282531738,1.9297266006469727,4.4532151222229
134845,2.9745067796653935,,,
134846,,11.602301597595215,1.1228805780410767,2.585737943649292
134866,2.9066078211867663,11.808202743530273,-0.4165911078453064,-1.3551181554794312
134885,8.770533419908196,,,
134886,,18.339584350585938,2.3367409706115723,1.3431471586227417
134905,9.795212210614764,,0.7805097699165344,
134906,,17.597381591796875,,6.603208065032959
134926,4.41503420236544,12.12902545928955,2.674323320388794,3.976768970489502
